# sensor 0 OK
# sensor 1 OK
# sensor 2 OK
# sensor 3 OK
# sensor 4 OK
# sensor 5 OK
# sensor 0 = onboard LSM6DS3, 1..5 = finger MPU-6050
# units: accel g, gyro deg/s
millis,sensor_id,ax,ay,az,gx,gy,gz
# calib_start hold_still_ms=10000
1048,0,0.1153,0.0526,0.9936,0.07,-1.73,-10.43
1048,1,1.0076,-0.0818,0.0830,-8.84,2.40,-0.32
1048,2,1.0164,-0.0901,0.1118,-9.57,2.46,-3.18
1048,3,1.0029,-0.0767,0.1816,-11.07,-7.08,-11.31
1048,4,0.9880,-0.0959,0.2195,0.00,0.00,0.00
1048,5,1.2539,0.0820,0.0486,0.00,0.00,0.00
1058,0,0.1055,0.0518,1.0083,0.17,-1.66,-11.74
1058,1,0.9978,-0.0796,0.1077,-10.41,2.49,-0.64
1058,2,1.0081,-0.0906,0.1226,-11.10,2.32,-3.66
1058,3,0.9993,-0.0652,0.1997,-12.79,3.42,-3.24
1058,4,0.9871,-0.0791,0.2388,-8.87,0.20,-9.22
1058,5,1.2434,0.0972,0.0554,25.27,-25.30,-38.98
1069,0,0.0908,0.0371,1.0038,-0.16,-1.75,-13.34
1069,1,1.0027,-0.0640,0.1194,-12.32,1.91,-0.92
1069,2,1.0159,-0.0691,0.1260,-12.98,1.92,-4.09
1069,3,0.9971,-0.0483,0.2048,-14.43,3.45,-3.66
1069,4,0.9817,-0.0645,0.2388,-13.97,3.73,-5.62
1069,5,1.2422,0.1108,0.0571,-8.23,-7.04,-4.23
1080,0,0.0717,0.0370,1.0037,-0.16,-1.70,-15.87
1080,1,1.0034,-0.0378,0.1353,-14.84,1.48,-1.63
1080,2,1.0088,-0.0410,0.1453,-15.63,1.57,-4.58
1080,3,0.9861,-0.0276,0.2192,-17.21,3.37,-4.43
1080,4,0.9702,-0.0408,0.2441,-16.89,3.95,-6.52
1080,5,1.2349,0.1292,0.0732,-11.01,-6.73,-5.36
1090,0,0.0514,0.0268,1.0049,-0.05,-1.50,-18.71
1090,1,0.9976,-0.0244,0.1548,-18.17,1.74,-1.54
1090,2,1.0051,-0.0364,0.1565,-18.99,1.59,-5.37
1090,3,0.9802,-0.0151,0.2368,-20.55,3.42,-5.05
1090,4,0.9697,-0.0273,0.2610,-20.00,3.65,-7.22
1090,5,1.2354,0.1428,0.0767,-14.49,-7.08,-6.29
1100,0,0.0409,0.0162,1.0005,-0.21,-1.50,-22.30
1100,1,1.0066,-0.0173,0.1431,-20.90,1.85,-2.08
1100,2,1.0115,-0.0286,0.1501,-21.62,1.74,-5.60
1100,3,0.9844,-0.0090,0.2278,-23.08,3.25,-5.73
1100,4,0.9712,-0.0239,0.2527,-22.75,3.51,-8.18
1100,5,1.2317,0.1448,0.0625,-16.89,-6.67,-7.10
1111,0,0.0340,0.0234,1.0048,-0.23,-1.50,-24.48
1111,1,1.0051,-0.0144,0.1248,-22.87,2.09,-2.49
1111,2,1.0078,-0.0281,0.1438,-23.57,1.86,-6.32
1111,3,1.0005,-0.0049,0.2134,-25.10,3.30,-6.09
1111,4,0.9832,-0.0249,0.2458,-24.34,3.56,-8.58
1111,5,1.2432,0.1465,0.0730,-18.50,-6.89,-7.34
1122,0,0.0361,0.0185,1.0055,-0.04,-1.49,-26.20
1122,1,0.9968,-0.0076,0.1228,-24.14,1.94,-2.60
1122,2,1.0100,-0.0095,0.1558,-24.60,1.88,-6.47
1122,3,0.9861,0.0090,0.2153,-26.32,3.39,-6.52
1122,4,0.9773,0.0042,0.2544,-25.62,3.44,-9.08
1122,5,1.2385,0.1755,0.0808,-19.63,-7.25,-7.68
1132,0,0.0093,0.0133,1.0095,-0.09,-1.43,-27.32
1132,1,1.0059,0.0261,0.1331,-25.63,2.05,-2.87
1132,2,1.0071,0.0178,0.1548,-26.14,1.63,-6.96
1132,3,0.9907,0.0437,0.2158,-27.60,3.19,-7.08
1132,4,0.9734,0.0276,0.2493,-26.78,3.39,-9.68
1132,5,1.2280,0.2048,0.0857,-21.11,-7.28,-8.09
1143,0,-0.0203,0.0089,1.0009,0.09,-1.37,-29.21
1143,1,0.9998,0.0520,0.1475,-27.40,1.91,-3.18
1143,2,0.9998,0.0508,0.1746,-27.77,1.47,-7.27
1143,3,0.9883,0.0725,0.2498,-29.42,2.67,-7.25
1143,4,0.9690,0.0674,0.2825,-28.64,2.69,-10.26
1143,5,1.2341,0.2373,0.0996,-23.16,-7.48,-9.02
1154,0,-0.0515,-0.0111,1.0117,0.51,-1.15,-31.76
1154,1,0.9983,0.0769,0.1792,-29.74,1.04,-3.85
1154,2,0.9990,0.0657,0.1985,-30.31,0.38,-7.92
1154,3,0.9832,0.0845,0.2666,-31.59,1.40,-7.86
1154,4,0.9629,0.0676,0.2998,-30.61,1.47,-10.90
1154,5,1.2097,0.2424,0.1367,-24.58,-8.67,-9.36
1164,0,-0.0536,-0.0623,0.9938,0.94,-1.45,-32.29
1164,1,0.9756,0.0571,0.1836,-29.74,1.92,-3.33
1164,2,0.9851,0.0388,0.2065,-30.00,2.17,-7.39
1164,3,0.9641,0.0583,0.2593,-31.34,3.08,-7.36
1164,4,0.9500,0.0427,0.2847,-30.38,3.62,-10.49
1164,5,1.2158,0.2095,0.1206,-24.35,-6.08,-9.21
1174,0,-0.0250,-0.0397,0.9967,-0.91,-1.52,-32.44
1174,1,0.9961,0.0266,0.1785,-30.03,2.44,-3.53
1174,2,1.0002,0.0166,0.2166,-30.35,1.48,-7.62
1174,3,1.0000,0.0371,0.2522,-31.86,2.89,-7.65
1174,4,0.9788,0.0176,0.3047,-30.93,2.96,-10.43
1174,5,1.2380,0.1868,0.1348,-24.89,-7.91,-9.19
1185,0,-0.0039,-0.0351,1.0098,0.46,-1.37,-33.30
1185,1,0.9749,0.0171,0.1831,-31.53,2.02,-3.57
1185,2,0.9868,0.0115,0.2131,-31.89,1.63,-7.95
1185,3,0.9756,0.0334,0.2576,-33.47,3.85,-8.17
1185,4,0.9626,0.0071,0.2856,-32.70,3.95,-10.87
1185,5,1.2153,0.1760,0.1260,-26.82,-5.88,-9.08
1196,0,0.0037,-0.0359,1.0027,-1.12,-1.63,-35.00
1196,1,1.0059,-0.0029,0.1633,-32.55,3.11,-3.50
1196,2,1.0076,-0.0129,0.2021,-32.98,2.49,-8.09
1196,3,0.9802,0.0166,0.2366,-34.14,3.69,-8.38
1196,4,1.0010,0.0266,0.2437,-32.27,3.56,-11.22
1196,5,1.2463,0.2019,0.0962,-24.63,-6.00,-9.15
1207,0,0.0201,-0.0756,1.0294,0.86,-1.23,-30.99
1207,1,1.0061,-0.0300,0.1155,-26.38,-1.47,-3.34
1207,2,1.0134,-0.0403,0.1421,-27.02,-1.57,-7.19
1207,3,1.0015,-0.0166,0.2012,-28.52,0.49,-7.16
1207,4,0.9634,-0.0425,0.2297,-28.11,1.02,-9.44
1207,5,1.2041,0.1177,0.0400,-22.50,-8.49,-8.37
1216,0,0.0861,0.0349,0.9810,1.15,-1.78,-30.24
1216,1,0.9919,-0.0693,0.0852,-27.22,2.67,-2.99
1216,2,0.9963,-0.0850,0.1414,-26.69,3.21,-6.87
1216,3,0.9949,-0.0503,0.1218,-27.50,4.46,-6.70
1216,4,0.9995,-0.0713,0.1875,-25.88,5.19,-9.25
1216,5,1.2485,0.1064,0.0557,-19.27,-5.08,-7.56
1227,0,0.0998,-0.0160,1.0265,-1.15,-1.56,-25.85
1227,1,1.0298,-0.1050,0.0762,-20.99,0.78,-2.23
1227,2,1.0227,-0.1113,0.1426,-20.64,-0.05,-5.63
1227,3,1.0344,-0.0718,0.1162,-21.31,0.50,-5.21
1227,4,1.0127,-0.0920,0.1909,-19.74,0.26,-7.34
1227,5,1.2490,0.0852,0.0576,-12.63,-10.35,-6.26
1238,0,0.1176,-0.0287,1.0010,3.17,-1.58,-17.57
1238,1,1.0068,-0.0984,0.0295,-12.56,0.82,-1.02
1238,2,1.0002,-0.0950,0.1094,-12.37,1.45,-3.83
1238,3,0.9839,-0.0525,0.1099,-12.98,4.11,-3.40
1238,4,0.9585,-0.0608,0.1870,-11.97,4.98,-4.99
1238,5,1.2129,0.1125,0.0469,-5.79,-5.50,-3.85
1249,0,0.0854,0.0065,0.9904,-1.68,-1.73,-12.48
1249,1,1.0095,-0.0486,0.1296,-9.73,3.94,-0.49
1249,2,1.0085,-0.0549,0.1794,-9.83,3.51,-3.18
1249,3,1.0200,-0.0168,0.2014,-10.75,4.40,-2.79
1249,4,1.0042,-0.0276,0.2610,-9.53,4.29,-4.37
1249,5,1.2610,0.1531,0.1208,-3.04,-6.96,-3.28
1259,0,0.0407,-0.0593,1.0238,-0.28,-1.66,-8.70
1259,1,1.0063,-0.0198,0.1309,-5.60,0.52,0.03
1259,2,0.9985,-0.0181,0.1760,-5.83,0.46,-2.61
1259,3,0.9858,0.0129,0.1895,-6.81,2.14,-1.85
1259,4,0.9622,-0.0051,0.2463,-6.06,2.70,-3.25
1259,5,1.2166,0.1716,0.0938,0.11,-7.80,-2.26
1269,0,0.0218,-0.0315,0.9988,0.23,-1.72,-6.41
1269,1,0.9922,0.0024,0.1555,-4.58,2.27,0.20
1269,2,0.9941,-0.0039,0.1943,-5.15,2.20,-2.32
1269,3,0.9819,0.0227,0.2322,-6.29,3.44,-1.62
1269,4,0.9617,0.0110,0.2798,-5.79,4.15,-3.05
1269,5,1.2146,0.1924,0.1238,0.53,-6.47,-2.21
1280,0,-0.0028,-0.0578,0.9999,-0.67,-1.70,-5.76
1280,1,0.9941,0.0217,0.1858,-3.73,2.56,0.43
1280,2,0.9958,0.0054,0.2209,-4.44,2.40,-2.08
1280,3,0.9905,0.0337,0.2583,-5.37,3.83,-1.48
1280,4,0.9746,0.0161,0.3027,-4.60,3.80,-2.84
1280,5,1.2402,0.1824,0.1436,1.63,-7.16,-2.09
1291,0,0.0027,-0.0642,1.0093,0.28,-1.72,-5.20
1291,1,0.9912,0.0012,0.1799,-3.31,0.98,0.26
1291,2,0.9924,-0.0056,0.2126,-4.12,0.69,-2.24
1291,3,0.9802,0.0117,0.2532,-5.39,2.31,-1.53
1291,4,0.9629,-0.0020,0.2888,-4.49,2.75,-2.78
1291,5,1.2156,0.1694,0.1238,1.62,-7.60,-1.97
1301,0,0.0179,-0.0529,0.9978,0.81,-1.56,-4.99
1301,1,0.9905,0.0005,0.1748,-3.19,2.47,0.27
1301,2,0.9797,-0.0085,0.2139,-3.79,2.61,-2.08
1301,3,0.9683,0.0154,0.2617,-5.24,4.61,-1.37
1301,4,0.9417,-0.0088,0.3000,-4.38,5.11,-2.50
1301,5,1.2009,0.1606,0.1309,1.88,-4.58,-1.60
1311,0,0.0239,-0.0666,0.9912,-2.48,-1.72,-4.69
1311,1,0.9722,-0.0115,0.2192,-3.31,5.08,0.66
1311,2,0.9719,-0.0176,0.2505,-4.12,5.10,-2.05
1311,3,0.9436,0.0027,0.3228,-5.85,6.82,-1.27
1311,4,0.9199,-0.0146,0.3606,-5.73,7.62,-2.58
1311,5,1.1689,0.1572,0.1641,0.09,-2.29,-1.56
1322,0,0.0267,-0.0906,0.9723,-5.01,-2.56,-6.86
1322,1,1.0137,-0.0327,0.2844,-6.38,3.37,0.61
1322,2,1.0388,-0.0515,0.2913,-7.50,1.44,-2.37
1322,3,1.0015,-0.0547,0.3787,-9.56,1.98,-2.43
1322,4,0.9878,-0.0706,0.3713,-9.74,1.79,-4.46
1322,5,1.2292,0.0989,0.1462,-4.64,-9.13,-3.77
1333,0,0.0715,-0.0275,1.0026,1.26,-1.59,-12.07
1333,1,0.9722,-0.0481,0.2151,-13.10,2.20,-0.96
1333,2,0.9817,-0.0513,0.2000,-14.21,1.98,-4.18
1333,3,0.9722,-0.0398,0.3071,-16.11,3.48,-3.62
1333,4,0.9534,-0.0452,0.3135,-16.09,3.73,-5.82
1333,5,1.2188,0.1333,0.1177,-10.24,-6.85,-4.78
1343,0,0.0428,-0.0132,0.9952,-0.42,-2.01,-18.08
1343,1,0.9993,0.0024,0.1704,-16.47,2.03,-1.28
1343,2,1.0056,-0.0015,0.1958,-16.90,2.06,-4.43
1343,3,0.9971,0.0276,0.2358,-18.12,2.73,-4.18
1343,4,0.9795,0.0159,0.2722,-17.31,3.36,-6.50
1343,5,1.2427,0.1926,0.1062,-11.19,-6.78,-5.59
1354,0,-0.0009,-0.0170,1.0167,0.07,-1.77,-18.51
1354,1,1.0029,0.0254,0.1365,-17.07,1.71,-1.66
1354,2,1.0112,0.0149,0.1555,-17.85,1.28,-5.22
1354,3,0.9888,0.0342,0.2471,-19.68,2.56,-4.92
1354,4,0.9814,0.0193,0.2712,-19.42,3.05,-7.39
1354,5,1.2534,0.1899,0.0793,-14.06,-7.34,-6.60
1364,0,-0.0151,0.0345,1.0188,1.14,-1.19,-22.24
1364,1,0.9946,0.0483,0.1682,-21.48,0.26,-2.78
1364,2,0.9897,0.0425,0.1636,-22.05,0.49,-6.50
1364,3,0.9766,0.0581,0.2361,-23.74,1.77,-6.08
1364,4,0.9590,0.0405,0.2471,-22.92,2.47,-8.52
1364,5,1.2239,0.2158,0.0674,-17.18,-7.25,-7.31
1375,0,-0.0283,0.0106,0.9934,0.16,-1.42,-24.45
1375,1,1.0037,0.0471,0.0955,-21.68,1.10,-2.27
1375,2,1.0000,0.0361,0.1345,-21.60,1.16,-5.94
1375,3,0.9897,0.0693,0.1238,-22.20,2.37,-5.19
1375,4,0.9868,0.0535,0.1804,-20.66,2.79,-7.44
1375,5,1.2161,0.2241,0.0322,-13.86,-6.96,-5.92
1385,0,-0.0192,0.0055,0.9925,-1.14,-1.58,-20.63
1385,1,1.0288,0.0493,0.1267,-18.53,1.33,-1.95
1385,2,1.0464,0.0361,0.1694,-18.47,0.17,-5.62
1385,3,1.0405,0.0647,0.1416,-18.69,1.69,-5.48
1385,4,1.0269,0.0491,0.2263,-16.34,0.87,-7.28
1385,5,1.2498,0.2129,0.1089,-9.48,-10.53,-5.91
1396,0,-0.0104,-0.0730,0.9870,3.24,-0.89,-13.58
1396,1,0.9724,-0.0034,0.0122,-7.80,1.45,-0.12
1396,2,0.9294,-0.0210,0.1316,-5.89,1.56,-1.95
1396,3,1.0081,0.0508,-0.0610,-5.30,4.15,-0.02
1396,4,0.9380,0.0139,0.0498,-2.78,7.24,-0.63
1396,5,1.1960,0.1721,-0.0312,4.02,-0.44,0.11
1407,0,0.0205,0.0357,0.9520,-5.79,-3.12,-3.36
1407,1,1.0466,-0.0315,0.0969,-0.76,0.00,1.25
1407,2,1.0591,-0.0444,0.1465,-1.19,0.21,-1.07
1407,3,0.9978,-0.0168,0.1467,-2.31,2.20,-0.38
1407,4,0.9724,-0.0222,0.2041,-1.53,3.54,-1.31
1407,5,1.2090,0.1633,0.0388,4.75,-6.14,-0.24
1416,0,0.0398,0.0122,1.0049,-0.86,-2.47,-1.61
1416,1,0.9910,-0.0364,0.0984,1.45,1.30,1.33
1416,2,1.0017,-0.0635,0.1836,1.40,1.21,-0.41
1416,3,0.9922,-0.0237,0.1621,0.90,3.71,0.35
1416,4,0.9666,-0.0361,0.2524,2.38,3.11,-0.53
1416,5,1.2144,0.1475,0.1353,9.02,-8.32,0.76
1427,0,0.0643,-0.0767,0.9923,-0.26,-2.13,4.06
1427,1,1.0073,-0.0659,0.1545,7.89,0.98,2.99
1427,2,1.0000,-0.0728,0.2100,7.77,1.47,1.16
1427,3,0.9897,-0.0210,0.1990,7.30,3.33,2.21
1427,4,0.9563,-0.0190,0.2998,8.63,2.73,2.18
1427,5,1.1794,0.1733,0.1833,15.50,-8.15,2.98
1438,0,0.0410,-0.1573,0.9692,1.17,-2.84,11.50
1438,1,0.9888,-0.0637,0.2310,14.12,0.79,4.18
1438,2,0.9863,-0.0696,0.3020,14.08,-0.27,3.08
1438,3,0.9878,-0.0222,0.2905,13.25,1.77,4.08
1438,4,0.9600,-0.0383,0.3535,14.02,1.73,3.92
1438,5,1.2100,0.1465,0.1956,20.79,-9.82,4.50
1449,0,0.0550,-0.1559,1.0172,2.40,-2.68,16.22
1449,1,1.0029,-0.0090,0.2129,19.05,0.92,4.37
1449,2,-0.0001,-0.0001,-0.0001,-0.02,-0.02,-0.02
1449,3,0.9858,0.0178,0.2524,17.50,2.47,4.55
1449,4,0.9583,0.0059,0.3064,18.06,2.37,4.67
1449,5,1.2222,0.1802,0.1372,24.52,-8.81,4.95
1458,0,0.0122,-0.0666,1.0136,1.68,-2.20,19.20
1458,1,1.0000,0.0193,0.1711,20.43,1.10,4.21
1458,2,-0.0001,-0.0001,-0.0001,-0.02,-0.02,-0.02
1458,3,0.9861,0.0317,0.2363,18.20,2.55,4.53
1458,4,0.9653,0.0173,0.2759,18.55,2.73,4.72
1458,5,1.2273,0.1914,0.0852,24.47,-8.34,4.69
1468,0,-0.0035,-0.0057,0.9988,1.35,-2.26,18.90
1468,1,0.9976,0.0176,0.1335,19.40,1.04,4.34
1468,2,0.0000,0.0000,0.0000,0.00,0.00,0.00
1468,3,0.9895,0.0325,0.2141,16.99,2.72,4.56
1468,4,0.9885,0.0046,0.2412,17.10,2.55,4.41
1468,5,1.2524,0.1775,0.0591,22.95,-8.47,4.34
1479,0,0.0034,0.0375,1.0128,1.70,-2.33,17.18
1479,1,1.0020,0.0200,0.1035,17.11,1.18,3.98
1479,2,0.0000,0.0000,0.0000,0.00,0.00,0.00
1479,3,0.9917,0.0215,0.2002,14.24,2.52,3.59
1479,4,0.9885,-0.0010,0.2153,13.89,2.63,3.45
1479,5,1.2559,0.1758,0.0212,19.60,-8.58,3.39
1489,0,0.0032,0.0972,1.0016,1.56,-2.35,12.86
1489,1,1.0112,-0.0059,0.0845,12.89,1.42,3.47
1489,2,0.0000,0.0000,0.0000,0.00,0.00,0.00
1489,3,0.9976,-0.0122,0.1953,9.89,2.24,2.64
1489,4,0.9890,-0.0271,0.2036,9.66,2.34,2.24
1489,5,1.2478,0.1462,0.0007,15.10,-8.76,2.38
1500,0,0.0293,0.0972,0.9934,1.84,-2.52,8.93
1500,1,1.0110,-0.0039,0.1062,8.60,1.04,3.08
1500,2,0.0000,0.0000,0.0000,0.00,0.00,0.00
1500,3,0.9971,0.0007,0.2004,5.85,1.86,2.17
1500,4,0.9795,-0.0186,0.2263,5.94,1.62,1.66
1500,5,1.2378,0.1541,0.0537,11.57,-9.34,1.60
1509,0,0.0260,0.0540,1.0055,2.66,-2.66,5.84
1509,1,1.0037,0.0017,0.1221,5.71,0.69,2.87
1509,2,0.0000,0.0000,0.0000,0.00,0.00,0.00
1509,3,0.9993,0.0117,0.2168,3.56,1.47,1.83
1509,4,0.9834,-0.0073,0.2480,3.83,1.30,0.75
1509,5,1.2539,0.1631,0.0886,9.92,-9.91,0.85
1520,0,0.0140,0.0094,1.0196,2.64,-2.28,3.62
1520,1,1.0186,0.0042,0.1243,4.61,2.75,2.24
1520,2,0.0000,0.0000,0.0000,0.00,0.00,0.00
1520,3,0.9807,0.0198,0.2166,2.78,4.18,0.84
1520,4,0.9780,-0.0027,0.2810,3.15,4.40,-0.24
1520,5,1.2468,0.1675,0.1187,9.39,-7.33,0.34
1530,0,0.0089,-0.0162,1.0160,-0.63,-1.78,3.26
1530,1,1.0007,0.0105,0.1516,4.96,2.34,1.91
1530,2,0.0000,0.0000,0.0000,0.00,0.00,0.00
1530,3,0.9966,0.0330,0.2180,3.11,3.68,0.99
1530,4,0.9714,0.0188,0.2664,3.76,3.91,0.27
1530,5,1.2280,0.1960,0.1079,10.23,-7.24,0.85
1541,0,-0.0010,-0.0390,0.9994,0.37,-2.31,4.13
1541,1,1.0010,0.0190,0.1484,6.34,2.66,2.50
1541,2,0.0000,0.0000,0.0000,0.00,0.00,0.00
1541,3,0.9883,0.0347,0.2200,4.56,3.82,1.57
1541,4,0.9648,0.0247,0.2688,5.27,3.71,1.13
1541,5,1.2275,0.1953,0.1135,11.50,-6.92,1.57
1550,0,-0.0061,-0.0428,1.0066,0.05,-2.47,6.02
1550,1,1.0078,0.0249,0.1653,7.89,3.98,3.08
1550,2,0.0000,0.0000,0.0000,0.00,0.00,0.00
1550,3,1.0032,0.0461,0.2261,6.20,4.27,2.14
1550,4,0.9797,0.0344,0.2798,6.85,4.50,1.83
1550,5,1.2227,0.2041,0.1216,13.30,-6.26,2.38
1560,0,-0.0143,-0.0527,1.0069,-0.25,-2.84,7.51
1560,1,1.0095,0.0229,0.1733,9.04,4.95,3.71
1560,2,0.0000,0.0000,0.0000,0.00,0.00,0.00
1560,3,0.9985,0.0352,0.2463,7.07,5.45,2.98
1560,4,0.9766,0.0178,0.2957,7.85,5.50,2.50
1560,5,1.2358,0.1821,0.1355,14.00,-6.38,2.98
1571,0,0.0039,-0.0559,1.0025,-0.58,-3.20,8.31
1571,1,1.0547,0.0049,0.1604,8.96,8.26,4.81
1571,2,0.0000,0.0000,0.0000,0.00,0.00,0.00
1571,3,1.0076,0.0142,0.2493,6.61,11.98,3.37
1571,4,0.9958,0.0017,0.3013,7.11,12.70,3.13
1571,5,1.2405,0.1748,0.1257,13.53,2.06,4.34
1581,0,0.0096,-0.0525,1.0308,-12.70,-5.11,8.12
1581,1,1.0356,0.0100,0.1968,9.33,12.38,6.92
1581,2,0.0000,0.0000,0.0000,0.00,0.00,0.00
1581,3,1.0422,0.0442,0.2512,7.19,13.83,6.23
1581,4,1.0024,0.0315,0.3027,7.62,13.79,6.24
1581,5,1.2458,0.1987,0.1548,14.23,1.48,7.50
1591,0,-0.0059,-0.0720,1.0059,-8.65,-7.65,9.66
1591,1,1.0186,0.0237,0.1826,10.66,9.97,9.95
1591,2,0.0000,0.0000,0.0000,0.00,0.00,0.00
1591,3,1.0334,0.0474,0.2478,8.20,10.58,9.54
1591,4,0.9905,0.0342,0.2966,8.53,10.46,9.44
1591,5,1.2307,0.1956,0.1318,15.24,-1.07,10.35
1601,0,-0.0045,-0.0621,0.9954,-5.93,-9.94,11.52
1601,1,0.9885,0.0117,0.1904,11.57,5.63,11.44
1601,2,0.0000,0.0000,0.0000,0.00,0.00,0.00
1601,3,0.9727,0.0083,0.2380,8.50,7.59,10.56
1601,4,0.9585,-0.0059,0.2849,8.20,7.77,10.37
1601,5,1.2288,0.1672,0.1433,14.79,-4.96,11.07
1612,0,0.0188,-0.0364,0.9960,-1.72,-10.66,10.80
1612,1,1.0112,-0.0054,0.1792,10.35,3.36,12.44
1612,2,0.0000,0.0000,0.0000,0.00,0.00,0.00
1612,3,1.0134,-0.0051,0.2595,7.10,5.27,11.86
1612,4,0.9934,-0.0161,0.2820,6.92,5.77,11.69
1612,5,1.2485,0.1543,0.1160,13.28,-6.26,12.18
1622,0,0.0310,-0.0207,1.0015,-0.84,-12.18,9.75
1622,1,1.0623,-0.0010,0.1570,9.51,2.87,15.53
1622,2,0.0000,0.0000,0.0000,0.00,0.00,0.00
1622,3,1.0947,0.0256,0.2307,6.31,5.13,15.77
1622,4,1.0535,0.0200,0.2683,5.74,5.57,15.94
1622,5,1.2854,0.2000,0.1035,12.49,-5.82,17.19
1632,0,-0.0052,-0.0165,1.0202,-1.33,-18.04,10.95
1632,1,1.1243,0.0444,0.1482,10.29,3.56,22.55
1632,2,0.0000,0.0000,0.0000,0.00,0.00,0.00
1632,3,1.1770,0.0769,0.2217,6.56,6.26,23.77
1632,4,1.1079,0.0579,0.2673,5.56,7.16,24.29
1632,5,1.3186,0.2324,0.1006,12.85,-4.85,26.05
1642,0,-0.0306,-0.0190,1.0292,-2.77,-26.20,13.07
1642,1,1.1755,0.0618,0.1165,12.70,6.14,33.37
1642,2,0.0000,0.0000,0.0000,0.00,0.00,0.00
1642,3,1.2104,0.0989,0.1587,9.25,9.82,35.08
1642,4,1.1213,0.0896,0.2397,7.76,10.93,35.80
1642,5,1.3037,0.2593,0.1121,16.00,-1.05,38.20
1653,0,-0.0404,-0.0510,1.0281,-6.82,-37.61,20.44
1653,1,1.1587,0.0427,0.1060,17.57,11.37,43.86
1653,2,0.0000,0.0000,0.0000,0.00,0.00,0.00
1653,3,1.2070,0.0625,0.2056,12.12,15.98,46.05
1653,4,1.1396,0.0430,0.2715,9.63,16.47,46.76
1653,5,1.3250,0.2000,0.0913,17.62,4.23,48.95
1664,0,-0.0052,0.0013,1.0448,-12.98,-46.57,22.96
1664,1,1.1716,-0.0068,0.1553,16.87,15.57,55.31
1664,2,0.0000,0.0000,0.0000,0.00,0.00,0.00
1664,3,1.2244,0.0061,0.2678,10.00,18.34,57.15
1664,4,1.1372,-0.0259,0.3074,6.34,19.37,57.85
1664,5,1.3179,0.1316,0.0981,14.32,6.82,60.29
1673,0,0.0676,0.0073,1.0286,-14.91,-59.26,21.93
1673,1,1.1335,-0.0459,0.1953,13.80,14.81,66.56
1673,2,0.0000,0.0000,0.0000,0.00,0.00,0.00
1673,3,1.1758,-0.0183,0.3118,5.68,17.16,67.85
1673,4,1.0903,-0.0496,0.3394,1.18,18.18,67.73
1673,5,1.3071,0.1157,0.1401,9.51,4.38,69.94
1684,0,0.0736,-0.0215,1.0104,-12.69,-68.16,19.55
1684,1,1.0754,-0.0371,0.2371,9.65,11.51,74.96
1684,2,0.0000,0.0000,0.0000,0.00,0.00,0.00
1684,3,1.0964,-0.0251,0.3599,0.58,14.23,75.34
1684,4,1.0325,-0.0420,0.3711,-4.47,14.85,74.52
1684,5,1.2524,0.1157,0.1606,4.00,1.05,76.26
1694,0,0.0710,-0.0582,1.0081,-9.69,-74.38,15.05
1694,1,1.0239,-0.0508,0.2529,5.21,8.53,80.02
1694,2,0.0000,0.0000,0.0000,0.00,0.00,0.00
1694,3,1.0330,-0.0305,0.3547,-4.06,11.39,79.65
1694,4,0.9907,-0.0530,0.3809,-9.34,11.57,78.26
1694,5,1.2256,0.1089,0.1843,0.06,-1.98,79.80
1705,0,0.0747,-0.0793,0.9912,-5.74,-79.29,12.32
1705,1,1.0107,-0.0371,0.2439,2.29,5.15,83.59
1705,2,0.0000,0.0000,0.0000,0.00,0.00,0.00
1705,3,1.0261,-0.0281,0.3242,-6.58,8.46,82.43
1705,4,0.9858,-0.0461,0.3511,-12.02,9.59,80.85
1705,5,1.2341,0.1201,0.1707,-2.63,-4.46,82.29
1714,0,0.0731,-0.0772,1.0083,-3.92,-81.85,11.10
1714,1,1.0154,-0.0227,0.2180,1.22,4.14,85.83
1714,2,0.0000,0.0000,0.0000,0.00,0.00,0.00
1714,3,1.0176,0.0100,0.2927,-7.08,8.27,84.82
1714,4,0.9788,-0.0134,0.3230,-12.52,9.47,83.28
1714,5,1.2236,0.1453,0.1641,-2.98,-4.20,84.53
1725,0,0.0550,-0.0769,1.0148,-4.30,-83.93,11.60
1725,1,1.0320,-0.0374,0.1843,1.80,6.32,87.69
1725,2,0.0000,0.0000,0.0000,0.00,0.00,0.00
1725,3,1.0188,-0.0244,0.2451,-7.37,11.04,86.31
1725,4,0.9944,-0.0496,0.2886,-12.87,12.81,84.63
1725,5,1.2410,0.1064,0.0969,-2.96,-0.85,86.05
1736,0,0.0866,-0.0229,1.0202,-8.26,-85.52,11.29
1736,1,1.0549,-0.0664,0.1465,0.52,10.93,89.69
1736,2,0.0000,0.0000,0.0000,0.00,0.00,0.00
1736,3,1.0437,-0.0547,0.2290,-8.55,16.14,88.20
1736,4,1.0198,-0.0901,0.2612,-14.27,18.06,86.37
1736,5,1.2612,0.0764,0.0659,-4.55,4.85,87.94
1746,0,0.1221,0.0154,1.0333,-13.58,-88.06,9.87
1746,1,1.0796,-0.1047,0.1267,-1.11,19.27,91.89
1746,2,0.0000,0.0000,0.0000,0.00,0.00,0.00
1746,3,1.0601,-0.0930,0.2231,-10.93,25.50,89.82
1746,4,1.0281,-0.1326,0.2515,-16.85,28.14,87.62
1746,5,1.2698,0.0269,0.0586,-7.31,15.31,89.88
1756,0,0.1591,0.0383,1.0520,-26.09,-90.16,7.53
1756,1,1.0984,-0.1277,0.1384,-4.43,32.12,94.15
1756,2,0.0000,0.0000,0.0000,0.00,0.00,0.00
1756,3,1.0740,-0.1062,0.2441,-14.35,39.21,91.53
1756,4,1.0396,-0.1333,0.2810,-20.49,41.77,89.21
1756,5,1.2749,0.0188,0.0845,-10.40,29.74,91.97
1766,0,0.1690,0.0040,1.0747,-39.10,-92.56,4.72
1766,1,1.1174,-0.1455,0.1685,-7.05,47.48,96.66
1766,2,0.0000,0.0000,0.0000,0.00,0.00,0.00
1766,3,1.0549,-0.1245,0.2568,-17.27,56.21,92.89
1766,4,1.0171,-0.1624,0.2961,-23.33,59.89,90.09
1766,5,1.2854,-0.0049,0.1226,-13.19,48.58,93.25
1777,0,0.1991,-0.0298,1.1158,-61.79,-93.62,2.87
1777,1,1.1047,-0.1973,0.1731,-8.60,70.89,95.54
1777,2,0.0000,0.0000,0.0000,0.00,0.00,0.00
1777,3,0.9624,-0.1948,0.2419,-19.07,83.19,89.71
1777,4,0.9590,-0.2231,0.2864,-24.20,87.57,86.06
1777,5,1.2388,-0.0710,0.1150,-14.17,76.95,90.14
1788,0,0.2506,-0.0509,1.1134,-88.10,-90.46,0.51
1788,1,1.0129,-0.2322,0.2197,-10.03,94.55,90.61
1788,2,0.0000,0.0000,0.0000,0.00,0.00,0.00
1788,3,0.9126,-0.2185,0.3032,-20.90,104.24,83.57
1788,4,0.9072,-0.2422,0.3362,-25.47,107.36,79.53
1788,5,1.1919,-0.0835,0.1528,-15.68,95.34,83.66
1797,0,0.2634,-0.0974,1.0629,-107.49,-84.05,-1.94
1797,1,0.9424,-0.2202,0.2485,-11.82,109.07,83.92
1797,2,0.0000,0.0000,0.0000,0.00,0.00,0.00
1797,3,0.8518,-0.2058,0.3408,-21.10,115.59,75.95
1797,4,0.8865,-0.2336,0.4146,-24.92,115.62,71.31
1797,5,1.2202,-0.0708,0.2913,-14.95,99.73,75.45
1808,0,0.2505,-0.2108,1.0753,-107.42,-76.65,-3.06
1808,1,0.8923,-0.2410,0.3545,-11.11,93.56,72.93
1808,2,0.0000,0.0000,0.0000,0.00,0.00,0.00
1808,3,0.9199,-0.2354,0.4363,-18.95,91.18,65.25
1808,4,0.9592,-0.2539,0.4919,-21.85,88.98,60.75
1808,5,1.2864,-0.0933,0.3306,-12.18,73.01,63.71
1819,0,0.2855,-0.2297,1.1361,-80.50,-64.03,-2.43
1819,1,1.0073,-0.2832,0.2820,-8.70,82.79,61.60
1819,2,0.0000,0.0000,0.0000,0.00,0.00,0.00
1819,3,0.9441,-0.2483,0.3384,-15.62,88.49,55.51
1819,4,0.9438,-0.2571,0.4009,-18.05,90.23,52.47
1819,5,1.2244,-0.0972,0.2354,-9.39,77.51,56.69
1829,0,0.2839,-0.1634,1.0397,-86.10,-58.83,-1.82
1829,1,1.0127,-0.2422,0.3098,-8.70,84.55,61.05
1829,2,0.0000,0.0000,0.0000,0.00,0.00,0.00
1829,3,1.0532,-0.2136,0.4033,-16.05,86.40,57.11
1829,4,0.9917,-0.2278,0.4468,-19.19,86.56,55.33
1829,5,1.2153,-0.0657,0.2676,-10.31,73.11,60.46
1839,0,0.2595,-0.1937,0.9920,-81.76,-63.77,-1.91
1839,1,1.0486,-0.2175,0.3342,-9.34,80.31,67.83
1839,2,0.0000,0.0000,0.0000,0.00,0.00,0.00
1839,3,1.0923,-0.1917,0.4377,-17.08,82.58,64.40
1839,4,1.0249,-0.2048,0.4841,-20.95,82.21,62.70
1839,5,1.2437,-0.0439,0.3064,-11.98,67.77,67.83
1850,0,0.2388,-0.2450,1.0044,-75.53,-70.44,-1.75
1850,1,1.0576,-0.1941,0.3562,-10.05,71.30,75.88
1850,2,0.0000,0.0000,0.0000,0.00,0.00,0.00
1850,3,1.1150,-0.1707,0.4624,-18.76,72.11,72.85
1850,4,1.0400,-0.1917,0.5042,-23.02,71.10,70.78
1850,5,1.2561,-0.0388,0.3240,-13.83,55.25,75.57
1861,0,0.2355,-0.2192,1.0055,-61.15,-79.26,-2.15
1861,1,1.0454,-0.1926,0.3828,-11.82,56.02,83.02
1861,2,0.0000,0.0000,0.0000,0.00,0.00,0.00
1861,3,1.1084,-0.1689,0.4980,-20.96,55.98,80.40
1861,4,1.0439,-0.1970,0.5344,-25.76,54.56,78.14
1861,5,1.2661,-0.0500,0.3469,-16.50,37.91,82.38
1871,0,0.2381,-0.2441,1.0200,-45.20,-85.35,-2.96
1871,1,1.0500,-0.2163,0.4092,-13.56,36.53,89.48
1871,2,0.0000,0.0000,0.0000,0.00,0.00,0.00
1871,3,1.1147,-0.2036,0.5181,-23.39,36.47,86.69
1871,4,1.0515,-0.2268,0.5518,-29.11,34.92,84.18
1871,5,1.2888,-0.0681,0.3584,-19.80,17.91,87.50
1881,0,0.2662,-0.2347,1.0455,-22.96,-91.30,-5.01
1881,1,1.0671,-0.2517,0.4075,-16.52,16.15,93.97
1881,2,0.0000,0.0000,0.0000,0.00,0.00,0.00
1881,3,1.1189,-0.2378,0.5334,-26.72,15.33,90.72
1881,4,1.0801,-0.2664,0.5610,-32.35,13.47,87.71
1881,5,1.3442,-0.1130,0.3689,-22.87,-3.47,89.44
1892,0,0.3066,-0.2252,1.1363,-2.92,-93.42,-7.53
1892,1,1.0857,-0.2839,0.4114,-18.95,-8.03,93.40
1892,2,0.0000,0.0000,0.0000,0.00,0.00,0.00
1892,3,1.1333,-0.2544,0.5247,-28.61,-9.74,90.20
1892,4,1.1138,-0.2920,0.5566,-34.72,-12.24,87.02
1892,5,1.3972,-0.1472,0.3518,-25.05,-29.62,87.28
1902,0,0.3338,-0.1831,1.1690,20.90,-92.21,-10.68
1902,1,1.0935,-0.2915,0.3762,-21.88,-36.79,91.83
1902,2,0.0000,0.0000,0.0000,0.00,0.00,0.00
1902,3,1.1672,-0.2598,0.5037,-31.62,-40.41,89.54
1902,4,1.1370,-0.2869,0.5205,-38.31,-43.31,86.90
1902,5,1.4016,-0.1357,0.2935,-29.07,-61.27,86.26
1913,0,0.3259,-0.1070,1.1231,56.60,-93.15,-14.75
1913,1,1.0835,-0.2827,0.3281,-26.40,-70.81,93.16
1913,2,0.0000,0.0000,0.0000,0.00,0.00,0.00
1913,3,1.1663,-0.2502,0.4678,-35.50,-74.03,92.32
1913,4,1.1118,-0.2756,0.4946,-41.98,-76.92,89.85
1913,5,1.3391,-0.1265,0.2981,-32.43,-93.71,88.49
1923,0,0.3277,-0.1609,1.0657,85.94,-97.14,-16.38
1923,1,1.0405,-0.2930,0.3333,-25.94,-99.65,97.34
1923,2,0.0000,0.0000,0.0000,0.00,0.00,0.00
1923,3,1.1116,-0.2458,0.4412,-34.32,-100.79,97.63
1923,4,1.0542,-0.2627,0.4849,-41.16,-102.53,95.71
1923,5,1.2554,-0.1062,0.3015,-30.73,-118.26,93.65
1933,0,0.3212,-0.2012,1.0099,113.12,-101.27,-13.76
1933,1,0.9924,-0.2854,0.3291,-23.28,-120.38,103.07
1933,2,0.0000,0.0000,0.0000,0.00,0.00,0.00
1933,3,1.0486,-0.2410,0.4255,-31.85,-118.70,104.55
1933,4,0.9758,-0.2744,0.4597,-39.25,-118.61,102.81
1933,5,1.1875,-0.1323,0.2747,-28.93,-133.71,100.40
1944,0,0.3462,-0.1929,0.9365,126.33,-108.48,-10.17
1944,1,0.9600,-0.3062,0.3049,-21.68,-131.79,110.70
1944,2,0.0000,0.0000,0.0000,0.00,0.00,0.00
1944,3,0.9812,-0.2708,0.4199,-31.91,-128.93,112.85
1944,4,0.9106,-0.3000,0.4268,-40.47,-128.29,111.19
1944,5,1.1375,-0.1541,0.2092,-30.46,-143.37,108.03
1955,0,0.3648,-0.1174,0.8857,136.80,-114.87,-10.53
1955,1,0.8936,-0.3445,0.2830,-23.86,-140.44,116.84
1955,2,0.0000,0.0000,0.0000,0.00,0.00,0.00
1955,3,0.9104,-0.3064,0.3931,-34.63,-137.22,118.64
1955,4,0.8535,-0.3406,0.3860,-43.53,-136.18,116.35
1955,5,1.0759,-0.1921,0.1628,-33.51,-150.92,112.79
1965,0,0.4010,-0.0845,0.8424,143.38,-120.40,-12.25
1965,1,0.8354,-0.3743,0.2346,-25.91,-144.24,120.75
1965,2,0.0000,0.0000,0.0000,0.00,0.00,0.00
1965,3,0.8113,-0.3477,0.3359,-36.70,-139.51,121.31
1965,4,0.7849,-0.3850,0.3413,-45.57,-137.63,118.35
1965,5,1.0840,-0.2468,0.1436,-35.01,-152.15,114.15
1976,0,0.4457,-0.0655,0.8164,142.99,-121.96,-13.30
1976,1,0.8071,-0.4175,0.1782,-27.10,-137.57,121.80
1976,2,0.0000,0.0000,0.0000,0.00,0.00,0.00
1976,3,0.7732,-0.3650,0.2815,-38.08,-129.89,123.82
1976,4,0.7075,-0.4192,0.2539,-47.19,-125.71,120.53
1976,5,0.9478,-0.2681,0.0476,-36.40,-138.82,117.25
1986,0,0.4806,-0.0196,0.7281,131.23,-126.11,-14.35
1986,1,0.7659,-0.4490,0.1211,-29.45,-119.11,126.98
1986,2,0.0000,0.0000,0.0000,0.00,0.00,0.00
1986,3,0.6938,-0.4299,0.2236,-41.60,-109.22,127.07
1986,4,0.6541,-0.4797,0.2026,-51.24,-104.29,123.62
1986,5,0.9070,-0.3210,-0.0178,-40.72,-116.20,121.05
1997,0,0.5240,0.0310,0.7085,107.01,-129.08,-22.00
1997,1,0.7122,-0.4800,0.1177,-33.83,-98.40,128.64
1997,2,0.0000,0.0000,0.0000,0.00,0.00,0.00
1997,3,0.6362,-0.4504,0.2034,-45.98,-89.57,126.85
1997,4,0.6204,-0.4822,0.1924,-55.45,-85.59,122.70
1997,5,0.8765,-0.3313,-0.0217,-44.49,-98.18,120.90
2007,0,0.5389,0.0279,0.6894,86.21,-129.27,-21.51
2007,1,0.6711,-0.4924,0.0957,-36.64,-80.66,127.80
2007,2,0.0000,0.0000,0.0000,0.00,0.00,0.00
2007,3,0.5972,-0.4651,0.1682,-48.44,-72.55,124.95
2007,4,0.6040,-0.4958,0.1626,-57.13,-69.04,120.26
2007,5,0.8779,-0.3472,-0.0251,-45.89,-81.97,118.52
2018,0,0.5522,0.0250,0.7047,72.75,-127.14,-23.43
2018,1,0.6543,-0.5183,0.0664,-37.65,-66.38,123.51
2018,2,0.0000,0.0000,0.0000,0.00,0.00,0.00
2018,3,0.5837,-0.4956,0.1201,-48.63,-59.28,119.13
2018,4,0.6089,-0.5283,0.1309,-56.72,-56.49,114.12
2018,5,0.9011,-0.3726,-0.0547,-45.44,-69.94,112.95
2028,0,0.5807,0.0477,0.7209,62.02,-120.71,-24.13
2028,1,0.6562,-0.5454,0.0286,-37.02,-54.81,117.65
2028,2,0.0000,0.0000,0.0000,0.00,0.00,0.00
2028,3,0.5806,-0.5039,0.0664,-46.99,-47.07,113.54
2028,4,0.5999,-0.5288,0.1040,-54.17,-43.68,108.61
2028,5,0.8708,-0.3660,-0.0542,-42.84,-56.08,108.26
2039,0,0.5823,0.0105,0.6992,46.85,-116.18,-21.52
2039,1,0.6467,-0.5557,0.0286,-33.42,-39.63,113.44
2039,2,0.0000,0.0000,0.0000,0.00,0.00,0.00
2039,3,0.5903,-0.5112,0.0645,-43.22,-32.55,109.28
2039,4,0.5957,-0.5415,0.1091,-50.00,-29.30,104.92
2039,5,0.8633,-0.3774,-0.0510,-38.76,-42.05,104.89
2049,0,0.5939,0.0073,0.6867,31.08,-111.49,-18.73
2049,1,0.6467,-0.5591,0.0276,-30.53,-26.72,109.56
2049,2,0.0000,0.0000,0.0000,0.00,0.00,0.00
2049,3,0.5952,-0.5403,0.0764,-40.52,-20.09,104.89
2049,4,0.6099,-0.5718,0.1086,-47.02,-17.76,100.40
2049,5,0.8987,-0.4170,-0.0669,-36.05,-30.82,100.29
2060,0,0.6129,0.0516,0.6981,22.10,-107.08,-18.06
2060,1,0.6477,-0.5920,0.0120,-29.86,-17.98,105.05
2060,2,0.0000,0.0000,0.0000,0.00,0.00,0.00
2060,3,0.6331,-0.5964,0.0938,-40.35,-12.43,100.58
2060,4,0.6248,-0.6218,0.1060,-47.18,-10.61,96.75
2060,5,0.8789,-0.4622,-0.0757,-36.75,-24.84,97.89
2070,0,0.6593,0.0727,0.6385,15.31,-105.07,-19.23
2070,1,0.6584,-0.6226,0.0088,-31.40,-12.49,105.10
2070,2,0.0000,0.0000,0.0000,0.00,0.00,0.00
2070,3,0.6499,-0.6016,0.0867,-41.76,-6.60,101.28
2070,4,0.6335,-0.6287,0.1008,-48.63,-4.52,97.50
2070,5,0.8706,-0.4678,-0.0967,-38.37,-18.05,99.02
2081,0,0.6699,0.0672,0.6361,9.15,-106.40,-20.37
2081,1,0.6626,-0.6316,0.0227,-32.53,-5.86,106.05
2081,2,0.0000,0.0000,0.0000,0.00,0.00,0.00
2081,3,0.6453,-0.6172,0.0906,-42.76,-0.12,101.42
2081,4,0.6418,-0.6433,0.1162,-49.44,2.02,97.08
2081,5,0.9036,-0.4783,-0.0627,-38.70,-12.03,98.56
2091,0,0.6849,0.0416,0.6877,3.39,-105.40,-20.90
2091,1,0.6667,-0.6594,0.0444,-32.46,-1.11,103.71
2091,2,0.0000,0.0000,0.0000,0.00,0.00,0.00
2091,3,0.6401,-0.6431,0.1089,-42.40,3.40,98.21
2091,4,0.6533,-0.6738,0.1370,-48.73,4.96,93.73
2091,5,0.9253,-0.5125,-0.0447,-38.17,-9.33,95.02
2101,0,0.7128,0.0346,0.7146,0.88,-102.03,-21.09
2101,1,0.6545,-0.6826,0.0388,-32.18,-0.52,98.90
2101,2,0.0000,0.0000,0.0000,0.00,0.00,0.00
2101,3,0.6377,-0.6633,0.1035,-41.73,2.99,93.47
2101,4,0.6506,-0.6829,0.1372,-47.28,3.74,88.78
2101,5,0.9353,-0.5125,-0.0330,-36.53,-10.61,89.80
2112,0,0.7175,0.0268,0.7204,2.00,-96.14,-20.70
2112,1,0.6448,-0.6880,0.0342,-30.61,-2.41,93.30
2112,2,0.0000,0.0000,0.0000,0.00,0.00,0.00
2112,3,0.6128,-0.6699,0.0798,-39.30,0.82,87.50
2112,4,0.6431,-0.6997,0.1228,-44.61,1.51,82.96
2112,5,0.9329,-0.5435,-0.0527,-34.29,-12.90,83.73
2123,0,0.7377,0.0373,0.7254,4.86,-90.19,-19.74
2123,1,0.6287,-0.7278,0.0129,-28.75,-6.46,85.47
2123,2,0.0000,0.0000,0.0000,0.00,0.00,0.00
2123,3,0.5940,-0.7087,0.0674,-36.70,-3.83,79.60
2123,4,0.6304,-0.7290,0.1021,-41.31,-3.05,75.08
2123,5,0.9375,-0.5659,-0.0642,-31.45,-17.22,74.90
2132,0,0.7562,0.0589,0.7363,9.06,-80.32,-18.97
2132,1,0.6055,-0.7258,0.0125,-26.90,-12.05,75.25
2132,2,0.0000,0.0000,0.0000,0.00,0.00,0.00
2132,3,0.5698,-0.7036,0.0659,-33.95,-10.69,69.37
2132,4,0.6218,-0.7241,0.1001,-37.68,-11.05,64.78
2132,5,0.9377,-0.5442,-0.0574,-28.32,-25.11,64.69
2143,0,0.7414,0.0586,0.7238,18.13,-70.65,-18.62
2143,1,0.6040,-0.7139,-0.0066,-24.61,-21.02,65.01
2143,2,0.0000,0.0000,0.0000,0.00,0.00,0.00
2143,3,0.6011,-0.7000,0.0525,-31.13,-20.14,60.29
2143,4,0.6306,-0.7109,0.0835,-34.56,-20.66,56.73
2143,5,0.9023,-0.5327,-0.0869,-25.33,-34.41,56.76
2154,0,0.7291,0.0670,0.6618,26.53,-62.65,-17.25
2154,1,0.5979,-0.6985,-0.0288,-22.12,-29.34,59.80
2154,2,0.0000,0.0000,0.0000,0.00,0.00,0.00
2154,3,0.6111,-0.6858,0.0408,-28.02,-28.73,56.24
2154,4,0.6296,-0.7065,0.0742,-31.33,-29.15,53.13
2154,5,0.8887,-0.5288,-0.1035,-22.53,-42.49,52.64
2164,0,0.7237,0.0825,0.6313,35.79,-59.04,-15.44
2164,1,0.5908,-0.6997,-0.0383,-19.62,-37.02,55.73
2164,2,0.0000,0.0000,0.0000,0.00,0.00,0.00
2164,3,0.5930,-0.6812,0.0239,-25.13,-35.44,52.76
2164,4,0.6101,-0.6987,0.0674,-28.03,-35.56,49.65
2164,5,0.8782,-0.5295,-0.1030,-19.21,-48.23,48.50
2174,0,0.7266,0.0821,0.6448,40.76,-53.27,-13.14
2174,1,0.5876,-0.7300,-0.0366,-17.13,-40.64,50.32
2174,2,0.0000,0.0000,0.0000,0.00,0.00,0.00
2174,3,0.5488,-0.7095,0.0024,-22.09,-38.55,47.85
2174,4,0.5657,-0.7302,0.0371,-24.53,-37.10,45.01
2174,5,0.8462,-0.5625,-0.1272,-16.17,-48.79,43.73
2185,0,0.7527,0.0866,0.6281,41.06,-48.67,-11.80
2185,1,0.5527,-0.7566,-0.0435,-15.10,-39.73,44.52
2185,2,0.0000,0.0000,0.0000,0.00,0.00,0.00
2185,3,0.5212,-0.7402,-0.0022,-19.88,-37.45,41.31
2185,4,0.5520,-0.7668,0.0271,-21.80,-36.38,38.17
2185,5,0.8347,-0.5955,-0.1406,-13.60,-48.60,37.10
2196,0,0.7823,0.1048,0.6292,40.72,-40.74,-10.85
2196,1,0.5474,-0.7703,-0.0447,-13.21,-38.69,36.81
2196,2,0.0000,0.0000,0.0000,0.00,0.00,0.00
2196,3,0.4910,-0.7637,-0.0176,-17.02,-35.65,33.42
2196,4,0.5295,-0.7756,0.0234,-18.40,-34.66,30.26
2196,5,0.8289,-0.5920,-0.1365,-10.61,-46.02,28.90
2207,0,0.7904,0.0916,0.6412,38.47,-32.90,-9.38
2207,1,0.5366,-0.7991,-0.0691,-9.76,-35.48,26.95
2207,2,0.0000,0.0000,0.0000,0.00,0.00,0.00
2207,3,0.4751,-0.7903,-0.0420,-12.73,-32.17,23.27
2207,4,0.5203,-0.8079,0.0049,-13.37,-31.21,20.37
2207,5,0.8267,-0.6250,-0.1641,-5.80,-41.83,18.61
2216,0,0.8236,0.1163,0.6438,34.97,-21.00,-6.97
2216,1,0.5210,-0.8079,-0.0864,-6.55,-31.33,16.64
2216,2,0.0000,0.0000,0.0000,0.00,0.00,0.00
2216,3,0.4641,-0.8013,-0.0649,-8.52,-28.03,13.05
2216,4,0.5247,-0.8171,-0.0159,-8.43,-27.16,10.35
2216,5,0.8318,-0.6428,-0.1724,-1.69,-37.48,8.70
2227,0,0.8233,0.1236,0.6229,30.52,-11.90,-5.18
2227,1,0.5349,-0.7979,-0.0889,-3.01,-27.25,6.32
2227,2,0.0000,0.0000,0.0000,0.00,0.00,0.00
2227,3,0.4651,-0.7791,-0.0647,-4.12,-24.66,3.13
2227,4,0.5029,-0.7954,-0.0256,-3.39,-23.95,0.90
2227,5,0.8457,-0.6396,-0.1904,3.36,-33.34,-1.18
2237,0,0.8153,0.1388,0.6377,27.28,-2.19,-3.03
2237,1,0.5020,-0.7908,-0.1033,0.14,-24.14,-4.78
2237,2,0.0000,0.0000,0.0000,0.00,0.00,0.00
2237,3,0.4636,-0.7749,-0.0696,-0.64,-21.94,-7.60
2237,4,0.5320,-0.7959,-0.0371,0.82,-21.10,-9.71
2237,5,0.8250,-0.6077,-0.1987,6.81,-30.85,-11.56
2248,0,0.7941,0.1519,0.6237,24.11,9.99,-1.96
2248,1,0.5066,-0.7720,-0.1125,2.61,-21.94,-15.39
2248,2,0.0000,0.0000,0.0000,0.00,0.00,0.00
2248,3,0.4685,-0.7671,-0.0786,2.81,-20.37,-18.17
2248,4,0.5322,-0.7852,-0.0347,5.08,-19.95,-19.97
2248,5,0.8135,-0.6045,-0.2014,10.55,-29.25,-21.60
2257,0,0.7918,0.1460,0.6088,22.36,19.16,0.07
2257,1,0.5205,-0.7856,-0.1187,5.60,-17.92,-24.79
2257,2,0.0000,0.0000,0.0000,0.00,0.00,0.00
2257,3,0.4792,-0.7791,-0.0796,6.63,-16.20,-27.33
2257,4,0.5237,-0.7969,-0.0369,9.53,-15.86,-28.58
2257,5,0.8198,-0.6135,-0.1946,14.81,-24.53,-29.80
2268,0,0.8080,0.1344,0.6121,14.03,29.28,1.75
2268,1,0.5332,-0.8027,-0.1006,8.87,-13.82,-33.71
2268,2,0.0000,0.0000,0.0000,0.00,0.00,0.00
2268,3,0.4854,-0.7976,-0.0618,10.32,-11.97,-35.95
2268,4,0.5393,-0.8130,-0.0144,14.05,-11.82,-37.30
2268,5,0.8381,-0.6379,-0.1760,19.27,-20.20,-38.84
2279,0,0.8296,0.1144,0.6456,13.40,37.68,3.87
2279,1,0.5569,-0.8279,-0.0754,12.21,-8.76,-43.56
2279,2,0.0000,0.0000,0.0000,0.00,0.00,0.00
2279,3,0.5125,-0.8257,-0.0271,14.24,-7.47,-45.91
2279,4,0.5630,-0.8418,0.0161,18.43,-7.33,-46.63
2279,5,0.8713,-0.6660,-0.1497,22.92,-16.03,-48.11
2289,0,0.8561,0.1159,0.6720,9.59,48.65,5.04
2289,1,0.5938,-0.8296,-0.0566,13.62,-5.48,-52.90
2289,2,0.0000,0.0000,0.0000,0.00,0.00,0.00
2289,3,0.5603,-0.8208,0.0024,16.23,-5.07,-54.66
2289,4,0.6001,-0.8313,0.0405,20.60,-5.25,-55.28
2289,5,0.8909,-0.6538,-0.1365,24.72,-13.69,-56.29
2299,0,0.8453,0.1171,0.6736,7.05,55.49,4.81
2299,1,0.6211,-0.8047,-0.0413,14.38,-3.51,-59.79
2299,2,0.0000,0.0000,0.0000,0.00,0.00,0.00
2299,3,0.6038,-0.7917,0.0183,17.48,-3.31,-60.90
2299,4,0.6284,-0.8066,0.0500,22.46,-3.51,-61.05
2299,5,0.9048,-0.6318,-0.1221,26.35,-12.09,-61.76
2310,0,0.8235,0.1058,0.6769,5.62,61.39,5.18
2310,1,0.6421,-0.7871,-0.0459,15.44,-1.76,-64.34
2310,2,0.0000,0.0000,0.0000,0.00,0.00,0.00
2310,3,0.6252,-0.7725,0.0237,18.84,-1.50,-65.33
2310,4,0.6487,-0.7927,0.0618,23.92,-1.97,-65.34
2310,5,0.9250,-0.6157,-0.1199,27.53,-10.17,-66.08
2320,0,0.8118,0.1005,0.7000,4.11,65.43,5.53
2320,1,0.6567,-0.7749,-0.0364,16.52,-1.21,-69.19
2320,2,0.0000,0.0000,0.0000,0.00,0.00,0.00
2320,3,0.6489,-0.7615,0.0200,20.34,-2.23,-70.26
2320,4,0.6699,-0.7739,0.0598,26.08,-2.85,-70.09
2320,5,0.9453,-0.6042,-0.1199,29.53,-10.87,-70.76
2331,0,0.7967,0.1130,0.7248,4.71,70.07,6.25
2331,1,0.6746,-0.7683,-0.0469,17.76,-2.43,-74.81
2331,2,0.0000,0.0000,0.0000,0.00,0.00,0.00
2331,3,0.6641,-0.7563,0.0085,22.05,-3.24,-75.77
2331,4,0.6855,-0.7756,0.0527,28.05,-3.98,-75.54
2331,5,0.9651,-0.6013,-0.1250,31.31,-11.97,-76.31
2340,0,0.7981,0.1138,0.7341,5.97,76.07,6.97
2340,1,0.6860,-0.7698,-0.0581,19.54,-2.93,-79.97
2340,2,0.0000,0.0000,0.0000,0.00,0.00,0.00
2340,3,0.6741,-0.7510,0.0022,24.40,-4.02,-80.84
2340,4,0.7002,-0.7761,0.0464,30.75,-4.44,-80.46
2340,5,0.9761,-0.6025,-0.1270,33.89,-12.43,-81.39
2351,0,0.7993,0.1230,0.7431,6.51,80.94,8.26
2351,1,0.6965,-0.7668,-0.0571,21.28,-3.76,-85.05
2351,2,0.0000,0.0000,0.0000,0.00,0.00,0.00
2351,3,0.6785,-0.7395,0.0034,26.66,-4.58,-85.30
2351,4,0.6941,-0.7612,0.0535,33.56,-5.08,-84.56
2351,5,0.9561,-0.5850,-0.1091,36.58,-12.78,-85.50
2362,0,0.7867,0.0935,0.7170,6.82,85.56,10.11
2362,1,0.6819,-0.7400,-0.0471,24.09,-3.19,-87.86
2362,2,0.0000,0.0000,0.0000,0.00,0.00,0.00
2362,3,0.6802,-0.7087,0.0139,29.60,-3.44,-87.25
2362,4,0.6775,-0.7305,0.0588,36.44,-4.00,-85.94
2362,5,0.9207,-0.5632,-0.1104,39.13,-11.27,-86.43
2372,0,0.7679,0.0869,0.6766,4.97,86.80,12.25
2372,1,0.6831,-0.7256,-0.0383,26.03,-0.41,-88.50
2372,2,0.0000,0.0000,0.0000,0.00,0.00,0.00
2372,3,0.6792,-0.7070,0.0278,31.28,-0.66,-87.60
2372,4,0.6821,-0.7380,0.0625,38.09,-0.73,-86.11
2372,5,0.9280,-0.5603,-0.1191,40.63,-7.94,-86.47
2382,0,0.7637,0.1050,0.6772,2.12,87.29,13.39
2382,1,0.6907,-0.7219,-0.0388,26.75,2.70,-88.55
2382,2,0.0000,0.0000,0.0000,0.00,0.00,0.00
2382,3,0.6951,-0.7000,0.0283,31.80,2.55,-87.76
2382,4,0.6846,-0.7190,0.0596,38.58,2.47,-86.35
2382,5,0.9285,-0.5457,-0.1218,40.96,-4.44,-86.37
2392,0,0.7488,0.1108,0.6866,-2.01,87.46,13.90
2392,1,0.7009,-0.7007,-0.0415,27.25,7.76,-88.76
2392,2,0.0000,0.0000,0.0000,0.00,0.00,0.00
2392,3,0.6931,-0.6792,0.0215,32.34,8.18,-88.49
2392,4,0.6938,-0.7048,0.0571,39.36,8.11,-87.18
2392,5,0.9541,-0.5364,-0.1248,42.02,1.85,-87.31
2403,0,0.7333,0.1190,0.7233,-7.53,89.14,14.52
2403,1,0.7224,-0.6931,-0.0483,27.79,14.70,-91.05
2403,2,0.0000,0.0000,0.0000,0.00,0.00,0.00
2403,3,0.6980,-0.6738,0.0139,33.15,15.51,-91.15
2403,4,0.7134,-0.7004,0.0498,40.35,15.68,-90.14
2403,5,0.9827,-0.5293,-0.1311,42.82,9.10,-90.20
2414,0,0.7298,0.1294,0.7613,-16.43,91.91,14.61
2414,1,0.7480,-0.6921,-0.0491,28.55,23.63,-94.21
2414,2,0.0000,0.0000,0.0000,0.00,0.00,0.00
2414,3,0.7190,-0.6619,0.0190,34.31,24.31,-94.56
2414,4,0.7356,-0.6843,0.0601,41.76,24.46,-93.37
2414,5,1.0020,-0.5110,-0.1179,44.02,17.79,-93.04
2423,0,0.7152,0.1137,0.7753,-23.98,95.24,15.68
2423,1,0.7629,-0.6606,-0.0288,29.92,30.35,-96.96
2423,2,0.0000,0.0000,0.0000,0.00,0.00,0.00
2423,3,0.7556,-0.6267,0.0442,36.15,30.44,-96.85
2423,4,0.7529,-0.6479,0.0879,44.17,30.17,-95.21
2423,5,1.0085,-0.4756,-0.0786,46.63,23.13,-94.44
2434,0,0.6821,0.0703,0.7784,-29.87,96.86,17.73
2434,1,0.7769,-0.6252,0.0063,33.28,34.85,-97.85
2434,2,0.0000,0.0000,0.0000,0.00,0.00,0.00
2434,3,0.7737,-0.5916,0.0710,39.68,34.29,-97.47
2434,4,0.7661,-0.6138,0.1221,47.60,34.02,-95.53
2434,5,1.0210,-0.4446,-0.0417,49.85,26.64,-94.90
2445,0,0.6547,0.0416,0.7862,-32.94,97.79,21.42
2445,1,0.7932,-0.6052,0.0227,36.27,37.40,-98.15
2445,2,0.0000,0.0000,0.0000,0.00,0.00,0.00
2445,3,0.8008,-0.5696,0.0974,42.20,36.52,-97.39
2445,4,0.7876,-0.5977,0.1360,50.06,35.98,-95.18
2445,5,1.0420,-0.4302,-0.0513,52.35,28.82,-94.44
2455,0,0.6387,0.0586,0.7969,-35.17,98.07,23.36
2455,1,0.8152,-0.5881,0.0227,37.66,39.25,-97.98
2455,2,0.0000,0.0000,0.0000,0.00,0.00,0.00
2455,3,0.8076,-0.5652,0.1016,43.33,38.87,-97.42
2455,4,0.8130,-0.5898,0.1333,51.18,38.44,-95.66
2455,5,1.0706,-0.4263,-0.0510,53.19,31.25,-94.69
2465,0,0.6306,0.0838,0.8468,-37.64,98.72,23.94
2465,1,0.8391,-0.5906,0.0247,38.14,41.51,-100.03
2465,2,0.0000,0.0000,0.0000,0.00,0.00,0.00
2465,3,0.8318,-0.5669,0.1082,43.97,40.08,-100.08
2465,4,0.8420,-0.5920,0.1477,51.91,38.84,-98.49
2465,5,1.1216,-0.4253,-0.0334,53.88,31.34,-97.73
2476,0,0.6267,0.0892,0.8872,-36.89,102.25,23.73
2476,1,0.8491,-0.5654,0.0269,38.52,38.95,-103.45
2476,2,0.0000,0.0000,0.0000,0.00,0.00,0.00
2476,3,0.8582,-0.5369,0.1047,44.90,36.63,-103.18
2476,4,0.8694,-0.5591,0.1499,53.04,35.07,-101.28
2476,5,1.1328,-0.3931,-0.0273,55.27,27.11,-100.87
2486,0,0.6051,0.0693,0.8912,-33.06,104.82,24.94
2486,1,0.8723,-0.5491,0.0332,40.81,34.05,-105.56
2486,2,0.0000,0.0000,0.0000,0.00,0.00,0.00
2486,3,0.8948,-0.5073,0.1121,47.51,31.62,-104.64
2486,4,0.8940,-0.5317,0.1729,56.14,29.59,-102.17
2486,5,1.1411,-0.3660,0.0073,58.14,21.45,-101.60
2497,0,0.5806,0.0317,0.8843,-25.85,105.94,27.65
2497,1,0.8887,-0.5254,0.0642,43.85,26.31,-104.87
2497,2,0.0000,0.0000,0.0000,0.00,0.00,0.00
2497,3,0.9414,-0.4863,0.1526,50.46,22.87,-102.52
2497,4,0.9111,-0.5105,0.2095,58.60,20.40,-99.28
2497,5,1.1399,-0.3567,0.0344,60.44,11.77,-98.66
2507,0,0.5700,0.0088,0.8585,-16.75,103.76,30.75
2507,1,0.8950,-0.5259,0.0972,45.73,14.23,-101.22
2507,2,0.0000,0.0000,0.0000,0.00,0.00,0.00
2507,3,0.9565,-0.4922,0.1919,51.60,10.09,-98.32
2507,4,0.9246,-0.5190,0.2466,59.21,7.63,-95.21
2507,5,1.1648,-0.3560,0.0596,60.96,-1.22,-95.11
2518,0,0.5639,0.0034,0.8818,-2.12,100.10,31.53
2518,1,0.9048,-0.5122,0.1128,45.88,0.93,-98.53
2518,2,0.0000,0.0000,0.0000,0.00,0.00,0.00
2518,3,0.9595,-0.4802,0.2114,51.50,-3.04,-95.24
2518,4,0.9309,-0.5076,0.2502,58.79,-5.31,-92.29
2518,5,1.1729,-0.3503,0.0667,60.52,-14.17,-93.01
2528,0,0.5489,0.0156,0.9084,9.24,98.16,31.29
2528,1,0.9248,-0.4968,0.1145,45.07,-10.75,-96.85
2528,2,0.0000,0.0000,0.0000,0.00,0.00,0.00
2528,3,0.9583,-0.4768,0.2114,50.49,-13.98,-93.97
2528,4,0.9453,-0.4985,0.2498,57.42,-15.85,-91.36
2528,5,1.2051,-0.3379,0.0618,59.45,-24.35,-92.92
2539,0,0.5322,0.0251,0.9509,18.64,98.00,30.01
2539,1,0.9355,-0.4717,0.1143,43.82,-20.96,-98.15
2539,2,0.0000,0.0000,0.0000,0.00,0.00,0.00
2539,3,0.9587,-0.4438,0.2029,49.68,-23.92,-95.63
2539,4,0.9551,-0.4675,0.2405,56.69,-25.76,-92.92
2539,5,1.2166,-0.3042,0.0540,58.70,-33.98,-95.27
2548,0,0.5025,0.0173,0.9782,29.16,99.68,29.19
2548,1,0.9512,-0.4414,0.0984,44.21,-29.01,-100.32
2548,2,0.0000,0.0000,0.0000,0.00,0.00,0.00
2548,3,0.9548,-0.4082,0.1809,50.47,-31.51,-97.47
2548,4,0.9519,-0.4375,0.2300,57.82,-33.19,-94.98
2548,5,1.2205,-0.2747,0.0469,59.69,-40.64,-97.62
2559,0,0.4742,0.0177,0.9970,35.17,102.85,29.54
2559,1,0.9504,-0.4150,0.0901,44.98,-33.68,-104.00
2559,2,0.0000,0.0000,0.0000,0.00,0.00,0.00
2559,3,0.9417,-0.3867,0.1633,51.57,-35.53,-101.25
2559,4,0.9441,-0.4136,0.2185,59.22,-37.04,-98.70
2559,5,1.2212,-0.2532,0.0449,60.95,-44.20,-101.45
2570,0,0.4518,0.0246,1.0002,39.27,106.29,29.80
2570,1,0.9463,-0.3977,0.0730,45.51,-36.47,-108.06
2570,2,0.0000,0.0000,0.0000,0.00,0.00,0.00
2570,3,0.9343,-0.3689,0.1382,52.26,-38.06,-104.84
2570,4,0.9333,-0.3972,0.1909,60.00,-39.31,-102.00
2570,5,1.1975,-0.2371,0.0078,61.51,-46.08,-104.84
2580,0,0.4380,0.0554,0.9679,40.71,109.86,29.68
2580,1,0.9326,-0.3884,0.0491,45.74,-37.97,-110.76
2580,2,0.0000,0.0000,0.0000,0.00,0.00,0.00
2580,3,0.9297,-0.3635,0.1282,52.35,-39.95,-107.83
2580,4,0.9277,-0.3979,0.1716,60.35,-41.08,-105.05
2580,5,1.1980,-0.2380,-0.0125,61.56,-47.88,-107.94
2590,0,0.4380,0.0772,0.9638,42.94,112.61,28.86
2590,1,0.9265,-0.3877,0.0349,44.73,-40.06,-114.52
2590,2,0.0000,0.0000,0.0000,0.00,0.00,0.00
2590,3,0.9053,-0.3713,0.1101,51.69,-41.95,-111.62
2590,4,0.9150,-0.3987,0.1506,59.69,-42.99,-108.87
2590,5,1.1853,-0.2393,-0.0344,60.60,-49.68,-112.08
2601,0,0.4327,0.1066,0.9506,44.28,116.53,26.72
2601,1,0.9116,-0.3765,0.0061,43.48,-40.93,-118.18
2601,2,0.0000,0.0000,0.0000,0.00,0.00,0.00
2601,3,0.8958,-0.3523,0.0806,50.66,-42.64,-115.42
2601,4,0.9045,-0.3845,0.1208,58.92,-43.36,-112.81
2601,5,1.1738,-0.2234,-0.0735,59.69,-49.60,-116.09
2612,0,0.4218,0.1313,0.9395,44.06,119.56,25.09
2612,1,0.9119,-0.3596,-0.0205,41.60,-39.24,-122.41
2612,2,0.0000,0.0000,0.0000,0.00,0.00,0.00
2612,3,0.8721,-0.3357,0.0569,49.27,-39.95,-120.61
2612,4,0.9038,-0.3684,0.1018,58.08,-40.66,-118.12
2612,5,1.1863,-0.2048,-0.0703,58.69,-46.43,-121.37
2622,0,0.4017,0.1440,0.9745,41.23,125.82,22.63
2622,1,0.9092,-0.3374,-0.0288,40.40,-35.36,-129.74
2622,2,0.0000,0.0000,0.0000,0.00,0.00,0.00
2622,3,0.8555,-0.3184,0.0432,48.96,-35.76,-128.43
2622,4,0.8945,-0.3508,0.0896,58.14,-35.68,-126.58
2622,5,1.1938,-0.1934,-0.0820,58.98,-40.70,-130.21
2632,0,0.3916,0.1503,1.0030,35.07,133.19,20.84
2632,1,0.9141,-0.3225,-0.0291,39.83,-27.71,-138.99
2632,2,0.0000,0.0000,0.0000,0.00,0.00,0.00
2632,3,0.8372,-0.2979,0.0337,49.22,-27.97,-138.32
2632,4,0.8879,-0.3313,0.0823,59.50,-28.06,-136.49
2632,5,1.1953,-0.1765,-0.0852,59.47,-32.08,-139.51
2643,0,0.3786,0.1415,1.0143,27.14,143.62,19.48
2643,1,0.9260,-0.3027,-0.0344,40.15,-17.63,-148.93
2643,2,0.0000,0.0000,0.0000,0.00,0.00,0.00
2643,3,0.8438,-0.2700,0.0320,49.98,-17.71,-148.64
2643,4,0.8975,-0.3115,0.0784,61.10,-17.48,-146.76
2643,5,1.2126,-0.1536,-0.0920,60.81,-21.53,-149.59
2654,0,0.3578,0.1552,1.0336,15.61,152.25,18.11
2654,1,0.9343,-0.2651,-0.0283,39.63,-7.24,-159.33
2654,2,0.0000,0.0000,0.0000,0.00,0.00,0.00
2654,3,0.8613,-0.2212,0.0393,50.11,-8.34,-159.19
2654,4,0.9141,-0.2668,0.0818,61.97,-8.47,-157.34
2654,5,1.2175,-0.1106,-0.0889,61.30,-12.18,-159.63
2664,0,0.3184,0.1556,1.0307,7.35,162.71,16.24
2664,1,0.9424,-0.2227,-0.0178,39.22,1.51,-168.70
2664,2,0.0000,0.0000,0.0000,0.00,0.00,0.00
2664,3,0.8733,-0.1809,0.0461,50.89,0.24,-168.49
2664,4,0.9155,-0.2231,0.1018,63.27,-0.18,-166.61
2664,5,1.2212,-0.0720,-0.0708,62.79,-3.48,-168.34
2674,0,0.2915,0.1315,1.0383,-2.29,170.54,15.59
2674,1,0.9536,-0.1875,-0.0012,40.40,9.68,-177.31
2674,2,0.0000,0.0000,0.0000,0.00,0.00,0.00
2674,3,0.8955,-0.1255,0.0625,52.81,8.15,-177.22
2674,4,0.9299,-0.1748,0.1187,66.37,7.56,-175.02
2674,5,1.2366,-0.0288,-0.0342,65.24,4.06,-176.43
2685,0,0.2496,0.0903,1.0474,-9.05,179.71,16.85
2685,1,0.9612,-0.1416,0.0242,42.90,16.61,-184.99
2685,2,0.0000,0.0000,0.0000,0.00,0.00,0.00
2685,3,0.9187,-0.0745,0.0833,56.12,14.41,-184.35
2685,4,0.9404,-0.1165,0.1396,70.23,13.56,-181.54
2685,5,1.2249,0.0195,-0.0107,68.87,10.00,-182.27
2695,0,0.2153,0.0683,1.0086,-15.30,185.01,18.92
2695,1,0.9585,-0.0923,0.0366,45.95,21.15,-189.37
2695,2,0.0000,0.0000,0.0000,0.00,0.00,0.00
2695,3,0.9463,-0.0251,0.0999,59.51,17.82,-187.47
2695,4,0.9473,-0.0759,0.1562,73.39,16.38,-183.73
2695,5,1.2056,0.0598,0.0027,71.92,12.40,-184.34
2706,0,0.1756,0.0583,0.9665,-17.27,186.97,21.75
2706,1,0.9609,-0.0698,0.0471,48.32,22.38,-189.63
2706,2,0.0000,0.0000,0.0000,0.00,0.00,0.00
2706,3,0.9688,-0.0056,0.1174,61.24,18.73,-187.37
2706,4,0.9607,-0.0649,0.1675,75.13,17.22,-183.68
2706,5,1.2224,0.0669,-0.0120,73.24,13.31,-184.05
2716,0,0.1649,0.0808,0.9820,-18.13,187.13,22.63
2716,1,1.0063,-0.0552,0.0332,48.44,22.79,-189.83
2716,2,0.0000,0.0000,0.0000,0.00,0.00,0.00
2716,3,1.0146,-0.0029,0.1233,61.02,18.76,-187.74
2716,4,1.0178,-0.0598,0.1592,74.66,16.76,-184.20
2716,5,1.2778,0.0784,-0.0281,72.49,12.87,-184.43
2726,0,0.1482,0.1235,1.0242,-17.38,187.15,21.47
2726,1,1.0364,-0.0310,0.0337,47.34,21.37,-189.95
2726,2,0.0000,0.0000,0.0000,0.00,0.00,0.00
2726,3,1.0532,0.0352,0.1274,60.20,17.34,-187.36
2726,4,1.0403,-0.0149,0.1738,73.83,15.77,-183.59
2726,5,1.2871,0.1223,-0.0032,72.15,11.24,-183.63
2737,0,0.1130,0.0926,1.0197,-15.61,186.15,21.56
2737,1,1.0400,0.0085,0.0547,47.47,18.67,-187.82
2737,2,0.0000,0.0000,0.0000,0.00,0.00,0.00
2737,3,1.0720,0.0715,0.1396,60.06,14.03,-184.63
2737,4,1.0444,0.0156,0.1775,73.33,12.11,-180.55
2737,5,1.2700,0.1494,0.0056,71.45,7.50,-180.38
2748,0,0.0789,0.0905,0.9765,-12.15,183.00,21.44
2748,1,1.0295,0.0239,0.0586,46.64,13.28,-182.52
2748,2,0.0000,0.0000,0.0000,0.00,0.00,0.00
2748,3,1.0940,0.0728,0.1606,58.21,8.02,-178.20
2748,4,1.0464,0.0222,0.1958,71.02,5.39,-173.97
2748,5,1.2524,0.1536,0.0020,69.45,-0.21,-173.85
2758,0,0.0771,0.0938,0.9345,-3.06,175.00,20.72
2758,1,1.0203,0.0151,0.0632,44.23,3.40,-173.91
2758,2,0.0000,0.0000,0.0000,0.00,0.00,0.00
2758,3,1.1116,0.0586,0.1641,55.08,-2.31,-169.04
2758,4,1.0359,0.0076,0.1809,66.89,-4.89,-164.73
2758,5,1.2322,0.1572,-0.0166,65.19,-10.64,-164.61
2768,0,0.0739,0.1193,0.8869,6.49,166.01,18.57
2768,1,1.0115,0.0393,0.0391,40.92,-7.65,-163.21
2768,2,0.0000,0.0000,0.0000,0.00,0.00,0.00
2768,3,1.1096,0.0754,0.1394,50.89,-12.73,-158.31
2768,4,1.0359,0.0344,0.1560,61.63,-15.42,-153.86
2768,5,1.2119,0.1826,-0.0410,60.49,-21.31,-153.85
2779,0,0.0310,0.1301,0.8639,17.75,153.28,17.01
2779,1,0.9951,0.0740,0.0242,37.73,-17.19,-151.54
2779,2,0.0000,0.0000,0.0000,0.00,0.00,0.00
2779,3,1.0825,0.1174,0.1135,46.98,-21.30,-146.46
2779,4,1.0017,0.0840,0.1333,56.79,-23.15,-142.17
2779,5,1.1785,0.2373,-0.0627,56.35,-28.95,-142.26
2789,0,-0.0160,0.1338,0.8458,23.91,142.84,15.36
2789,1,0.9839,0.1296,0.0063,34.93,-20.99,-140.49
2789,2,0.0000,0.0000,0.0000,0.00,0.00,0.00
2789,3,1.0369,0.1667,0.0881,43.60,-23.62,-136.27
2789,4,0.9807,0.1345,0.1167,52.93,-24.66,-133.01
2789,5,1.1853,0.3022,-0.0571,53.13,-29.94,-133.88
2799,0,-0.0933,0.1271,0.8888,24.31,133.52,14.37
2799,1,0.9800,0.1829,0.0176,33.42,-19.25,-134.09
2799,2,0.0000,0.0000,0.0000,0.00,0.00,0.00
2799,3,0.9771,0.2251,0.0903,41.85,-20.27,-131.30
2799,4,0.9463,0.1987,0.1309,51.44,-20.41,-128.35
2799,5,1.1721,0.3545,-0.0310,51.97,-25.47,-129.53
2810,0,-0.1416,0.0734,0.9124,19.72,129.87,14.63
2810,1,0.9438,0.2168,0.0452,33.53,-12.70,-131.07
2810,2,0.0000,0.0000,0.0000,0.00,0.00,0.00
2810,3,0.9214,0.2527,0.0918,42.05,-13.65,-129.04
2810,4,0.9041,0.2280,0.1411,52.06,-14.23,-126.35
2810,5,1.1401,0.3901,-0.0061,52.75,-20.14,-127.10
2821,0,-0.1796,0.0416,0.8874,13.70,127.73,16.27
2821,1,0.9165,0.2485,0.0317,35.39,-6.89,-128.18
2821,2,0.0000,0.0000,0.0000,0.00,0.00,0.00
2821,3,0.9126,0.2932,0.0701,43.65,-6.76,-125.44
2821,4,0.8826,0.2561,0.1140,52.89,-6.73,-122.44
2821,5,1.1111,0.4146,-0.0364,53.83,-12.15,-122.78
2831,0,-0.2028,0.0742,0.8495,6.39,124.30,18.39
2831,1,0.9077,0.2605,0.0054,36.46,0.35,-124.24
2831,2,0.0000,0.0000,0.0000,0.00,0.00,0.00
2831,3,0.9087,0.3008,0.0520,44.70,-0.02,-121.69
2831,4,0.8828,0.2673,0.0938,53.88,-0.40,-118.79
2831,5,1.1101,0.4280,-0.0503,54.85,-6.24,-119.16
2841,0,-0.2195,0.0891,0.8464,-3.46,121.00,20.35
2841,1,0.8857,0.2705,-0.0127,38.31,5.48,-121.08
2841,2,0.0000,0.0000,0.0000,0.00,0.00,0.00
2841,3,0.8850,0.3027,0.0330,45.80,5.07,-118.61
2841,4,0.8645,0.2683,0.0684,54.75,4.78,-115.69
2841,5,1.0920,0.4316,-0.0913,55.91,-1.34,-115.83
2852,0,-0.2246,0.1556,0.8165,-4.78,118.33,21.49
2852,1,0.8628,0.2717,-0.0369,38.18,10.41,-117.88
2852,2,0.0000,0.0000,0.0000,0.00,0.00,0.00
2852,3,0.8660,0.2974,0.0193,45.16,9.98,-115.62
2852,4,0.8494,0.2642,0.0381,53.74,9.60,-112.66
2852,5,1.0786,0.4270,-0.1243,54.60,3.50,-112.81
2862,0,-0.2247,0.1663,0.7964,-9.17,115.06,20.93
2862,1,0.8428,0.2739,-0.0454,37.11,15.66,-115.04
2862,2,0.0000,0.0000,0.0000,0.00,0.00,0.00
2862,3,0.8376,0.2969,0.0120,43.77,15.76,-113.11
2862,4,0.8191,0.2715,0.0369,52.29,15.79,-110.52
2862,5,1.0498,0.4346,-0.1243,53.47,9.94,-110.46
2873,0,-0.2303,0.1552,0.7803,-16.42,112.94,20.46
2873,1,0.8188,0.2893,-0.0464,36.26,23.34,-112.73
2873,2,0.0000,0.0000,0.0000,0.00,0.00,0.00
2873,3,0.8091,0.3281,0.0090,43.16,23.76,-111.21
2873,4,0.7915,0.3032,0.0276,51.63,23.94,-108.61
2873,5,1.0261,0.4714,-0.1318,52.60,18.31,-108.02
2883,0,-0.2710,0.1496,0.7548,-23.92,110.04,20.39
2883,1,0.8064,0.3464,-0.0364,36.05,32.46,-109.42
2883,2,0.0000,0.0000,0.0000,0.00,0.00,0.00
2883,3,0.8074,0.3796,0.0115,42.50,33.33,-107.74
2883,4,0.7827,0.3574,0.0364,50.58,33.95,-105.34
2883,5,1.0156,0.5310,-0.1196,52.47,28.06,-103.94
2893,0,-0.3237,0.1338,0.7598,-35.30,106.73,21.03
2893,1,0.8372,0.3960,-0.0176,36.46,42.58,-105.89
2893,2,0.0000,0.0000,0.0000,0.00,0.00,0.00
2893,3,0.8340,0.4348,0.0405,42.82,43.28,-104.93
2893,4,0.8308,0.4111,0.0801,51.19,43.36,-102.67
2893,5,1.0913,0.5747,-0.0581,53.16,37.15,-101.40
2904,0,-0.3748,0.0878,0.8401,-43.01,104.70,22.72
2904,1,0.9114,0.4292,0.0459,38.34,48.76,-104.81
2904,2,0.0000,0.0000,0.0000,0.00,0.00,0.00
2904,3,0.8955,0.4805,0.1064,44.69,47.60,-103.54
2904,4,0.8711,0.4482,0.1387,52.90,47.94,-100.70
2904,5,1.1230,0.6113,0.0127,55.47,39.97,-99.42
2915,0,-0.4025,0.0259,0.8908,-45.87,103.64,25.01
2915,1,0.9211,0.4385,0.0859,40.53,47.34,-102.43
2915,2,0.0000,0.0000,0.0000,0.00,0.00,0.00
2915,3,0.9529,0.4937,0.1614,46.56,45.05,-100.66
2915,4,0.9102,0.4763,0.1924,54.56,43.77,-97.62
2915,5,1.1506,0.6431,0.0703,57.08,35.71,-96.17
2925,0,-0.4348,-0.0187,0.8778,-41.58,100.00,28.12
2925,1,0.9114,0.4897,0.1233,43.18,40.32,-97.40
2925,2,0.0000,0.0000,0.0000,0.00,0.00,0.00
2925,3,0.9551,0.5393,0.1760,49.02,37.56,-94.98
2925,4,0.9109,0.5176,0.2190,56.56,35.85,-91.76
2925,5,1.1394,0.6763,0.0791,59.18,27.22,-90.53
2935,0,-0.4651,-0.0262,0.8732,-32.51,95.44,31.13
2935,1,0.9053,0.5098,0.1355,45.37,31.34,-93.11
2935,2,0.0000,0.0000,0.0000,0.00,0.00,0.00
2935,3,0.9397,0.5464,0.1780,50.95,28.17,-90.95
2935,4,0.9219,0.5176,0.2197,58.15,26.56,-88.40
2935,5,1.1736,0.6794,0.0720,60.81,17.53,-87.98
2946,0,-0.4812,-0.0048,0.9150,-23.85,93.62,33.35
2946,1,0.9084,0.5217,0.1094,46.96,22.50,-92.31
2946,2,0.0000,0.0000,0.0000,0.00,0.00,0.00
2946,3,0.9233,0.5544,0.1555,52.34,19.40,-90.20
2946,4,0.9099,0.5315,0.1838,59.47,17.95,-87.19
2946,5,1.1611,0.6902,0.0361,61.71,9.24,-87.25
2957,0,-0.4947,0.0276,0.8976,-14.72,93.56,34.21
2957,1,0.8901,0.5354,0.0781,47.73,15.77,-91.62
2957,2,0.0000,0.0000,0.0000,0.00,0.00,0.00
2957,3,0.9070,0.5649,0.1274,52.98,13.86,-88.92
2957,4,0.8884,0.5312,0.1587,59.74,12.50,-85.92
2957,5,1.1282,0.6946,0.0032,61.83,4.52,-86.17
2967,0,-0.4964,0.0604,0.8642,-10.53,92.07,34.53
2967,1,0.8699,0.5244,0.0552,47.39,12.79,-90.02
2967,2,0.0000,0.0000,0.0000,0.00,0.00,0.00
2967,3,0.8816,0.5432,0.1147,51.71,11.82,-87.11
2967,4,0.8606,0.5042,0.1248,58.03,11.01,-84.20
2967,5,1.0974,0.6692,-0.0464,60.05,3.34,-84.35
2977,0,-0.4785,0.1070,0.8214,-9.43,89.93,32.87
2977,1,0.8601,0.5132,0.0281,44.12,13.27,-87.65
2977,2,0.0000,0.0000,0.0000,0.00,0.00,0.00
2977,3,0.8640,0.5210,0.0977,47.83,12.87,-85.19
2977,4,0.8521,0.4929,0.0933,53.95,12.29,-82.50
2977,5,1.0955,0.6589,-0.0874,55.34,4.82,-82.69
2988,0,-0.4781,0.1642,0.8161,-10.83,86.76,27.91
2988,1,0.8694,0.5256,0.0139,38.64,14.73,-85.54
2988,2,0.0000,0.0000,0.0000,0.00,0.00,0.00
2988,3,0.8816,0.5286,0.1025,41.63,14.20,-83.62
2988,4,0.8792,0.5071,0.0930,47.60,13.69,-81.60
2988,5,1.1289,0.6787,-0.0957,49.16,6.03,-81.63
2999,0,-0.4948,0.1863,0.8499,-11.94,84.49,22.42
2999,1,0.8965,0.5437,0.0073,32.08,15.02,-83.77
2999,2,0.0000,0.0000,0.0000,0.00,0.00,0.00
2999,3,0.9221,0.5483,0.0947,35.33,14.08,-82.81
2999,4,0.9187,0.5247,0.0938,41.15,13.34,-81.19
2999,5,1.1663,0.6970,-0.0876,42.84,5.07,-80.78
3008,0,-0.5157,0.1885,0.8764,-10.94,81.93,15.89
3008,1,0.9248,0.5554,0.0168,26.75,11.77,-82.11
3008,2,0.0000,0.0000,0.0000,0.00,0.00,0.00
3008,3,0.9539,0.5688,0.1086,29.71,9.59,-81.10
3008,4,0.9512,0.5417,0.1199,35.53,8.08,-79.56
3008,5,1.1912,0.7134,-0.0513,37.85,-0.89,-79.56
3019,0,-0.5286,0.1543,0.8863,-3.82,79.49,11.90
3019,1,0.9175,0.5708,0.0479,22.64,2.85,-79.39
3019,2,0.0000,0.0000,0.0000,0.00,0.00,0.00
3019,3,0.9692,0.5891,0.1230,26.35,0.03,-77.94
3019,4,0.9424,0.5654,0.1421,31.97,-1.79,-76.41
3019,5,1.1689,0.7344,-0.0066,34.56,-10.99,-76.21
3030,0,-0.5427,0.0900,0.8625,5.16,75.81,9.48
3030,1,0.9097,0.5730,0.0669,20.67,-7.59,-75.07
3030,2,0.0000,0.0000,0.0000,0.00,0.00,0.00
3030,3,0.9609,0.5940,0.1399,23.95,-10.58,-73.25
3030,4,0.9241,0.5664,0.1619,29.57,-12.03,-71.66
3030,5,1.1426,0.7432,0.0142,32.38,-21.37,-71.92
3040,0,-0.5486,0.0642,0.8375,16.76,70.37,8.63
3040,1,0.8750,0.5759,0.0808,19.27,-17.62,-70.21
3040,2,0.0000,0.0000,0.0000,0.00,0.00,0.00
3040,3,0.9219,0.5957,0.1401,22.47,-20.11,-68.21
3040,4,0.8811,0.5715,0.1543,27.45,-21.37,-66.73
3040,5,1.1013,0.7458,0.0120,30.26,-30.67,-67.19
3050,0,-0.5547,0.0522,0.8025,24.82,66.29,8.00
3050,1,0.8335,0.5840,0.0693,18.09,-25.40,-65.80
3050,2,0.0000,0.0000,0.0000,0.00,0.00,0.00
3050,3,0.8499,0.5996,0.1155,21.16,-26.35,-63.73
3050,4,0.8193,0.5750,0.1279,25.74,-26.82,-62.46
3050,5,1.0398,0.7500,-0.0305,28.75,-35.18,-63.13
3061,0,-0.5588,0.0672,0.7558,29.30,61.28,7.16
3061,1,0.7969,0.5896,0.0393,16.32,-26.15,-61.39
3061,2,0.0000,0.0000,0.0000,0.00,0.00,0.00
3061,3,0.8052,0.5996,0.0828,18.85,-26.09,-59.60
3061,4,0.7754,0.5786,0.0889,22.99,-26.08,-58.73
3061,5,1.0061,0.7522,-0.0691,26.20,-34.08,-59.22
3071,0,-0.5657,0.1076,0.7307,27.84,57.87,4.97
3071,1,0.7703,0.5869,0.0042,13.95,-23.18,-58.08
3071,2,0.0000,0.0000,0.0000,0.00,0.00,0.00
3071,3,0.7666,0.5938,0.0435,16.14,-22.15,-56.85
3071,4,0.7434,0.5759,0.0486,20.27,-21.54,-56.14
3071,5,0.9763,0.7507,-0.1074,23.54,-29.50,-56.93
3082,0,-0.5653,0.1307,0.7016,22.21,54.49,3.43
3082,1,0.7507,0.5867,-0.0203,11.45,-16.79,-55.08
3082,2,0.0000,0.0000,0.0000,0.00,0.00,0.00
3082,3,0.7478,0.5918,0.0181,13.34,-15.16,-54.38
3082,4,0.7363,0.5728,0.0242,17.28,-14.73,-54.00
3082,5,0.9722,0.7581,-0.1357,20.55,-22.52,-53.92
3092,0,-0.5682,0.1588,0.6925,15.96,51.59,0.74
3092,1,0.7581,0.6057,-0.0349,8.75,-10.75,-51.86
3092,2,0.0000,0.0000,0.0000,0.00,0.00,0.00
3092,3,0.7673,0.6089,0.0171,10.21,-9.40,-51.47
3092,4,0.7576,0.5896,0.0315,13.95,-9.33,-51.28
3092,5,0.9885,0.7712,-0.1167,17.40,-17.68,-50.79
3102,0,-0.5882,0.1531,0.7047,11.04,47.51,-1.21
3102,1,0.7725,0.6196,-0.0046,6.18,-8.15,-48.41
3102,2,0.0000,0.0000,0.0000,0.00,0.00,0.00
3102,3,0.8032,0.6313,0.0466,7.65,-8.52,-48.23
3102,4,0.7825,0.6147,0.0608,11.28,-8.78,-48.12
3102,5,1.0203,0.7986,-0.0791,15.07,-18.06,-47.80
3113,0,-0.6068,0.1242,0.7229,11.95,44.26,-2.68
3113,1,0.7810,0.6406,0.0200,4.41,-11.57,-44.84
3113,2,0.0000,0.0000,0.0000,0.00,0.00,0.00
3113,3,0.8237,0.6492,0.0732,5.69,-12.63,-44.50
3113,4,0.8008,0.6340,0.0911,9.13,-13.40,-44.20
3113,5,1.0227,0.8176,-0.0554,12.99,-23.19,-44.23
3123,0,-0.6272,0.0905,0.7243,16.61,39.57,-3.71
3123,1,0.7761,0.6562,0.0330,3.22,-17.53,-40.37
3123,2,0.0000,0.0000,0.0000,0.00,0.00,0.00
3123,3,0.8208,0.6699,0.0767,4.41,-18.61,-39.88
3123,4,0.7925,0.6584,0.0996,7.53,-19.50,-39.80
3123,5,1.0164,0.8376,-0.0439,11.86,-29.53,-39.79
3133,0,-0.6494,0.0817,0.7210,23.61,35.58,-3.82
3133,1,0.7783,0.6819,0.0271,2.72,-24.03,-35.92
3133,2,0.0000,0.0000,0.0000,0.00,0.00,0.00
3133,3,0.8157,0.6992,0.0723,3.57,-25.05,-35.34
3133,4,0.7864,0.6831,0.0913,6.06,-25.60,-35.40
3133,5,1.0151,0.8667,-0.0481,10.73,-35.44,-35.48
3144,0,-0.6782,0.0842,0.7141,29.07,30.85,-4.01
3144,1,0.7661,0.7029,0.0208,1.92,-29.60,-31.59
3144,2,0.0000,0.0000,0.0000,0.00,0.00,0.00
3144,3,0.7913,0.7200,0.0637,2.67,-29.54,-31.11
3144,4,0.7676,0.7065,0.0850,5.22,-30.26,-31.19
3144,5,1.0027,0.8867,-0.0493,9.79,-40.24,-31.69
3154,0,-0.7014,0.0838,0.6944,33.93,27.26,-3.95
3154,1,0.7368,0.7307,0.0122,1.76,-32.23,-27.89
3154,2,0.0000,0.0000,0.0000,0.00,0.00,0.00
3154,3,0.7551,0.7466,0.0476,2.23,-32.11,-27.11
3154,4,0.7275,0.7319,0.0662,4.26,-32.14,-27.21
3154,5,0.9558,0.9062,-0.0598,9.28,-42.05,-27.95
3165,0,-0.7209,0.0728,0.6775,35.60,23.76,-3.18
3165,1,0.7107,0.7271,0.0105,1.92,-33.94,-24.84
3165,2,0.0000,0.0000,0.0000,0.00,0.00,0.00
3165,3,0.7092,0.7456,0.0425,2.12,-32.99,-24.60
3165,4,0.6841,0.7280,0.0520,4.20,-32.46,-24.41
3165,5,0.9136,0.9065,-0.0793,9.30,-41.44,-25.08
3175,0,-0.7199,0.0784,0.6429,34.60,21.21,-2.89
3175,1,0.6726,0.7346,-0.0049,2.17,-31.33,-22.00
3175,2,0.0000,0.0000,0.0000,0.00,0.00,0.00
3175,3,0.6646,0.7383,0.0144,1.92,-29.28,-21.85
3175,4,0.6611,0.7166,0.0286,3.91,-28.58,-22.34
3175,5,0.9177,0.9011,-0.1055,8.95,-37.85,-22.85
3185,0,-0.7149,0.1147,0.6548,30.92,19.86,-2.90
3185,1,0.6704,0.7366,-0.0308,1.60,-26.06,-20.75
3185,2,0.0000,0.0000,0.0000,0.00,0.00,0.00
3185,3,0.6548,0.7380,-0.0171,1.39,-23.40,-21.31
3185,4,0.6628,0.7290,0.0032,3.19,-22.93,-21.77
3185,5,0.9111,0.9053,-0.1272,8.41,-32.24,-22.43
3196,0,-0.7222,0.1235,0.6509,24.99,19.09,-3.01
3196,1,0.6724,0.7317,-0.0405,1.40,-21.28,-20.92
3196,2,0.0000,0.0000,0.0000,0.00,0.00,0.00
3196,3,0.6584,0.7332,-0.0251,1.18,-19.02,-21.74
3196,4,0.6687,0.7192,-0.0029,3.13,-18.73,-22.53
3196,5,0.9116,0.9065,-0.1333,8.20,-27.77,-22.75
3207,0,-0.7215,0.1434,0.6353,20.90,18.80,-3.36
3207,1,0.6709,0.7314,-0.0542,0.79,-16.73,-19.95
3207,2,0.0000,0.0000,0.0000,0.00,0.00,0.00
3207,3,0.6787,0.7383,-0.0254,0.24,-15.18,-20.52
3207,4,0.6765,0.7183,-0.0161,1.91,-14.73,-21.01
3207,5,0.9158,0.9060,-0.1528,7.30,-24.21,-20.85
3216,0,-0.7208,0.1656,0.6311,17.75,16.96,-4.34
3216,1,0.6843,0.7295,-0.0630,-0.73,-14.72,-18.38
3216,2,0.0000,0.0000,0.0000,0.00,0.00,0.00
3216,3,0.6909,0.7268,-0.0273,-1.31,-13.60,-19.34
3216,4,0.6965,0.7161,-0.0129,0.20,-13.48,-19.95
3216,5,0.9404,0.8945,-0.1575,5.16,-23.48,-19.94
3227,0,-0.7155,0.1729,0.6536,16.54,15.80,-5.55
3227,1,0.6899,0.7302,-0.0596,-1.92,-14.84,-17.42
3227,2,0.0000,0.0000,0.0000,0.00,0.00,0.00
3227,3,0.7100,0.7388,-0.0232,-2.70,-14.34,-18.03
3227,4,0.7034,0.7195,-0.0112,-0.93,-14.34,-18.72
3227,5,0.9409,0.9058,-0.1406,4.44,-24.75,-18.34
3237,0,-0.7170,0.1547,0.6437,17.85,13.67,-6.16
3237,1,0.6836,0.7285,-0.0520,-2.43,-17.16,-14.99
3237,2,0.0000,0.0000,0.0000,0.00,0.00,0.00
3237,3,0.7107,0.7371,-0.0161,-3.11,-17.13,-15.47
3237,4,0.7007,0.7192,-0.0007,-1.77,-17.27,-16.26
3237,5,0.9346,0.8997,-0.1335,3.73,-27.73,-16.35
3248,0,-0.7161,0.1430,0.6309,21.51,11.50,-6.09
3248,1,0.6733,0.7292,-0.0444,-2.72,-20.82,-11.97
3248,2,0.0000,0.0000,0.0000,0.00,0.00,0.00
3248,3,0.6982,0.7354,-0.0151,-3.82,-20.43,-12.52
3248,4,0.6831,0.7185,-0.0056,-2.84,-20.40,-13.04
3248,5,0.9048,0.9023,-0.1416,2.85,-30.73,-12.66
3257,0,-0.7165,0.1460,0.6015,23.87,8.47,-6.37
3257,1,0.6565,0.7302,-0.0615,-3.33,-21.82,-8.34
3257,2,0.0000,0.0000,0.0000,0.00,0.00,0.00
3257,3,0.6780,0.7363,-0.0293,-5.10,-20.70,-8.43
3257,4,0.6636,0.7205,-0.0229,-4.11,-20.17,-8.96
3257,5,0.8865,0.9062,-0.1726,1.15,-30.12,-8.84
3268,0,-0.7211,0.1681,0.5854,22.91,3.94,-6.89
3268,1,0.6562,0.7483,-0.0806,-4.98,-19.94,-4.18
3268,2,0.0000,0.0000,0.0000,0.00,0.00,0.00
3268,3,0.6619,0.7610,-0.0535,-6.73,-17.50,-4.93
3268,4,0.6519,0.7476,-0.0537,-6.24,-16.56,-5.83
3268,5,0.8884,0.9360,-0.1907,-0.32,-26.46,-5.51
3279,0,-0.7499,0.1908,0.5896,19.44,0.91,-8.02
3279,1,0.6536,0.7834,-0.0930,-6.38,-15.42,-1.25
3279,2,0.0000,0.0000,0.0000,0.00,0.00,0.00
3279,3,0.6694,0.7935,-0.0637,-8.40,-12.90,-2.29
3279,4,0.6587,0.7815,-0.0566,-7.85,-12.00,-3.42
3279,5,0.8992,0.9709,-0.1843,-1.86,-21.62,-2.92
3289,0,-0.7836,0.1851,0.6077,14.16,-2.17,-8.68
3289,1,0.6658,0.7957,-0.0815,-7.02,-11.04,1.08
3289,2,0.0000,0.0000,0.0000,0.00,0.00,0.00
3289,3,0.6746,0.8015,-0.0588,-8.92,-8.89,-0.21
3289,4,0.6782,0.7905,-0.0410,-8.53,-8.12,-1.59
3289,5,0.9099,0.9749,-0.1692,-2.56,-18.61,-0.93
3299,0,-0.7868,0.1707,0.6187,11.20,-4.06,-8.63
3299,1,0.6716,0.8037,-0.0762,-7.37,-8.47,3.45
3299,2,0.0000,0.0000,0.0000,0.00,0.00,0.00
3299,3,0.6960,0.8113,-0.0447,-9.65,-6.73,2.53
3299,4,0.6904,0.7935,-0.0322,-9.37,-6.27,1.39
3299,5,0.9124,0.9849,-0.1665,-3.60,-16.98,2.34
3309,0,-0.7946,0.1713,0.6054,9.80,-7.80,-8.84
3309,1,0.6848,0.8103,-0.0754,-8.11,-7.71,7.47
3309,2,0.0000,0.0000,0.0000,0.00,0.00,0.00
3309,3,0.7139,0.8218,-0.0420,-10.90,-5.88,6.34
3309,4,0.6987,0.8008,-0.0332,-11.18,-5.48,5.47
3309,5,0.9233,0.9863,-0.1716,-5.08,-16.43,6.34
3320,0,-0.8007,0.1834,0.6063,9.15,-11.99,-9.29
3320,1,0.7002,0.8174,-0.0850,-9.54,-7.24,12.66
3320,2,0.0000,0.0000,0.0000,0.00,0.00,0.00
3320,3,0.7412,0.8232,-0.0520,-12.96,-4.95,11.60
3320,4,0.7209,0.8081,-0.0420,-13.40,-4.56,10.50
3320,5,0.9333,0.9949,-0.1875,-7.04,-15.44,11.94
3330,0,-0.8061,0.2034,0.6093,8.15,-17.18,-10.34
3330,1,0.7202,0.8286,-0.0977,-11.48,-6.08,18.72
3330,2,0.0000,0.0000,0.0000,0.00,0.00,0.00
3330,3,0.7603,0.8296,-0.0525,-15.30,-4.00,17.94
3330,4,0.7322,0.8093,-0.0557,-16.32,-3.25,16.76
3330,5,0.9475,0.9861,-0.2053,-9.97,-14.70,18.05
3340,0,-0.8004,0.2224,0.6111,7.14,-24.66,-11.48
3340,1,0.7212,0.8157,-0.1099,-13.36,-5.65,25.54
3340,2,0.0000,0.0000,0.0000,0.00,0.00,0.00
3340,3,0.7542,0.8254,-0.0676,-17.82,-3.50,23.95
3340,4,0.7302,0.8052,-0.0535,-19.33,-2.69,22.69
3340,5,0.9390,0.9941,-0.1929,-12.34,-14.20,24.21
3350,0,-0.8048,0.2115,0.6138,6.63,-29.92,-12.51
3350,1,0.7031,0.8213,-0.1035,-15.11,-4.79,30.93
3350,2,0.0000,0.0000,0.0000,0.00,0.00,0.00
3350,3,0.7361,0.8218,-0.0693,-19.65,-2.40,29.34
3350,4,0.7170,0.7964,-0.0562,-21.51,-1.83,27.60
3350,5,0.9373,0.9751,-0.2000,-14.34,-13.54,28.90
3361,0,-0.7890,0.2159,0.6211,6.11,-35.44,-13.60
3361,1,0.7043,0.7993,-0.1047,-16.90,-5.19,35.24
3361,2,0.0000,0.0000,0.0000,0.00,0.00,0.00
3361,3,0.7288,0.8025,-0.0652,-22.05,-2.79,33.16
3361,4,0.7214,0.7798,-0.0588,-24.15,-2.20,31.22
3361,5,0.9490,0.9646,-0.2075,-16.75,-14.24,32.26
3372,0,-0.7804,0.2219,0.6362,6.65,-38.76,-14.91
3372,1,0.7068,0.8040,-0.1047,-18.73,-5.04,38.85
3372,2,0.0000,0.0000,0.0000,0.00,0.00,0.00
3372,3,0.7385,0.8091,-0.0715,-24.03,-2.34,36.50
3372,4,0.7280,0.7908,-0.0586,-26.23,-1.56,34.40
3372,5,0.9578,0.9749,-0.1951,-18.99,-13.48,35.82
3381,0,-0.7885,0.2195,0.6422,5.88,-43.01,-16.27
3381,1,0.7366,0.8115,-0.1106,-20.05,-3.94,42.35
3381,2,0.0000,0.0000,0.0000,0.00,0.00,0.00
3381,3,0.7617,0.8203,-0.0759,-25.79,-1.33,40.14
3381,4,0.7585,0.8064,-0.0547,-28.35,-0.52,37.80
3381,5,0.9907,0.9890,-0.1968,-20.73,-12.89,39.31
3392,0,-0.7985,0.2253,0.6789,5.23,-46.24,-17.18
3392,1,0.7588,0.8250,-0.1045,-21.85,-4.50,46.00
3392,2,0.0000,0.0000,0.0000,0.00,0.00,0.00
3392,3,0.7996,0.8381,-0.0569,-27.92,-2.67,43.37
3392,4,0.7939,0.8159,-0.0410,-30.70,-2.27,40.93
3392,5,1.0281,1.0017,-0.1804,-23.07,-15.25,42.27
3403,0,-0.8157,0.2281,0.7031,7.28,-50.15,-18.88
3403,1,0.7825,0.8411,-0.0933,-24.06,-8.64,49.63
3403,2,0.0000,0.0000,0.0000,0.00,0.00,0.00
3403,3,0.8274,0.8491,-0.0437,-30.17,-6.90,47.10
3403,4,0.8223,0.8303,-0.0281,-33.18,-6.79,44.66
3403,5,1.0469,1.0083,-0.1626,-25.33,-19.83,46.21
3413,0,-0.8236,0.2152,0.7208,12.65,-54.06,-20.06
3413,1,0.7991,0.8433,-0.0752,-25.40,-13.85,54.15
3413,2,0.0000,0.0000,0.0000,0.00,0.00,0.00
3413,3,0.8499,0.8625,-0.0352,-31.57,-12.41,51.76
3413,4,0.8315,0.8406,-0.0103,-34.79,-12.37,49.24
3413,5,1.0466,1.0164,-0.1379,-26.47,-25.39,50.84
3423,0,-0.8250,0.1795,0.7279,17.59,-58.99,-19.93
3423,1,0.7920,0.8416,-0.0657,-25.16,-19.62,58.44
3423,2,0.0000,0.0000,0.0000,0.00,0.00,0.00
3423,3,0.8379,0.8545,-0.0300,-31.31,-17.85,56.44
3423,4,0.8220,0.8311,0.0000,-34.87,-17.71,53.91
3423,5,1.0410,1.0056,-0.1323,-26.29,-30.95,55.05
3434,0,-0.8086,0.1618,0.7272,23.94,-62.72,-18.50
3434,1,0.7869,0.8149,-0.0625,-24.02,-25.33,62.85
3434,2,0.0000,0.0000,0.0000,0.00,0.00,0.00
3434,3,0.8293,0.8289,-0.0312,-30.49,-23.45,60.81
3434,4,0.8066,0.8013,0.0024,-34.27,-23.25,58.37
3434,5,1.0354,0.9805,-0.1255,-25.51,-36.78,59.15
3444,0,-0.7803,0.1548,0.7227,28.88,-65.82,-16.64
3444,1,0.7673,0.7922,-0.0669,-22.55,-30.46,66.43
3444,2,0.0000,0.0000,0.0000,0.00,0.00,0.00
3444,3,0.8013,0.8025,-0.0398,-29.27,-27.77,64.44
3444,4,0.7839,0.7815,-0.0122,-33.22,-27.44,61.97
3444,5,1.0110,0.9524,-0.1365,-24.37,-40.81,62.82
3455,0,-0.7549,0.1560,0.7048,33.18,-69.21,-14.68
3455,1,0.7527,0.7627,-0.0867,-20.81,-32.98,69.77
3455,2,0.0000,0.0000,0.0000,0.00,0.00,0.00
3455,3,0.7759,0.7766,-0.0562,-27.76,-29.69,67.85
3455,4,0.7659,0.7507,-0.0349,-32.18,-28.61,65.44
3455,5,0.9956,0.9246,-0.1643,-22.85,-41.71,65.91
3465,0,-0.7231,0.1790,0.6928,33.92,-71.70,-12.44
3465,1,0.7405,0.7397,-0.0969,-19.40,-32.17,72.43
3465,2,0.0000,0.0000,0.0000,0.00,0.00,0.00
3465,3,0.7593,0.7502,-0.0796,-26.47,-28.44,70.58
3465,4,0.7495,0.7256,-0.0532,-31.24,-27.01,68.15
3465,5,0.9790,0.9001,-0.1860,-21.79,-39.94,68.56
3476,0,-0.7015,0.1903,0.6872,31.53,-74.20,-11.02
3476,1,0.7380,0.7019,-0.1150,-18.14,-29.22,74.50
3476,2,0.0000,0.0000,0.0000,0.00,0.00,0.00
3476,3,0.7395,0.7190,-0.0906,-25.42,-24.76,72.73
3476,4,0.7383,0.6946,-0.0596,-29.89,-23.45,70.17
3476,5,0.9795,0.8706,-0.1946,-20.79,-35.86,70.37
3486,0,-0.6737,0.1989,0.6955,28.12,-75.27,-9.08
3486,1,0.7351,0.6982,-0.1182,-16.70,-24.52,75.68
3486,2,0.0000,0.0000,0.0000,0.00,0.00,0.00
3486,3,0.7295,0.7166,-0.1021,-24.08,-19.79,73.53
3486,4,0.7349,0.6895,-0.0723,-28.69,-17.74,70.92
3486,5,0.9731,0.8677,-0.2019,-19.54,-30.31,71.44
3497,0,-0.6738,0.2094,0.6952,21.74,-75.93,-8.15
3497,1,0.7390,0.6970,-0.1206,-15.94,-18.38,76.75
3497,2,0.0000,0.0000,0.0000,0.00,0.00,0.00
3497,3,0.7388,0.7083,-0.0950,-23.91,-13.11,74.41
3497,4,0.7400,0.6812,-0.0735,-28.50,-11.48,72.08
3497,5,0.9824,0.8616,-0.2131,-19.18,-24.09,72.61
3507,0,-0.6672,0.2245,0.6963,15.63,-77.11,-7.72
3507,1,0.7527,0.6829,-0.1243,-16.06,-11.28,78.34
3507,2,0.0000,0.0000,0.0000,0.00,0.00,0.00
3507,3,0.7515,0.6934,-0.0901,-24.20,-5.69,75.88
3507,4,0.7510,0.6719,-0.0693,-29.07,-3.68,73.21
3507,5,0.9897,0.8499,-0.2097,-19.65,-16.24,74.46
3517,0,-0.6531,0.2150,0.7058,6.89,-78.87,-7.66
3517,1,0.7632,0.6812,-0.1194,-16.27,-2.85,80.03
3517,2,0.0000,0.0000,0.0000,0.00,0.00,0.00
3517,3,0.7585,0.6914,-0.0908,-24.41,3.11,77.69
3517,4,0.7559,0.6665,-0.0676,-29.31,5.31,75.08
3517,5,0.9888,0.8420,-0.2051,-20.03,-6.84,76.58
3528,0,-0.6488,0.2072,0.7141,-1.73,-80.54,-7.23
3528,1,0.7737,0.6763,-0.1091,-15.79,7.40,82.27
3528,2,0.0000,0.0000,0.0000,0.00,0.00,0.00
3528,3,0.7605,0.6921,-0.0862,-24.08,13.31,79.15
3528,4,0.7620,0.6689,-0.0571,-29.16,15.65,76.32
3528,5,1.0034,0.8447,-0.1848,-19.22,3.13,78.35
3539,0,-0.6492,0.1901,0.7346,-13.18,-81.92,-6.18
3539,1,0.7852,0.6694,-0.1003,-14.49,17.25,82.99
3539,2,0.0000,0.0000,0.0000,0.00,0.00,0.00
3539,3,0.7732,0.6836,-0.0791,-22.82,22.44,79.39
3539,4,0.7866,0.6492,-0.0408,-27.45,24.47,76.60
3539,5,1.0420,0.8262,-0.1584,-17.30,11.13,78.49
3548,0,-0.6332,0.1740,0.7857,-20.11,-81.44,-4.15
3548,1,0.8052,0.6262,-0.0874,-12.84,22.96,81.95
3548,2,0.0000,0.0000,0.0000,0.00,0.00,0.00
3548,3,0.7961,0.6392,-0.0586,-21.11,27.60,77.88
3548,4,0.8179,0.6033,-0.0205,-25.60,28.90,74.81
3548,5,1.0818,0.7788,-0.1531,-15.92,15.54,76.61
3559,0,-0.5829,0.1902,0.8162,-23.89,-79.21,-3.69
3559,1,0.8318,0.5918,-0.0820,-12.73,25.02,79.88
3559,2,0.0000,0.0000,0.0000,0.00,0.00,0.00
3559,3,0.8303,0.5938,-0.0286,-21.21,29.13,76.02
3559,4,0.8469,0.5657,-0.0063,-26.15,30.00,73.25
3559,5,1.1001,0.7395,-0.1553,-17.11,16.40,75.27
3570,0,-0.5519,0.2180,0.8222,-24.82,-78.26,-5.39
3570,1,0.8535,0.5669,-0.0842,-14.79,25.60,79.19
3570,2,0.0000,0.0000,0.0000,0.00,0.00,0.00
3570,3,0.8691,0.5708,-0.0281,-23.47,28.95,75.18
3570,4,0.8850,0.5398,-0.0093,-28.29,29.74,72.21
3570,5,1.1497,0.7153,-0.1614,-19.04,15.77,74.32
3580,0,-0.5268,0.2359,0.8577,-23.38,-77.91,-7.70
3580,1,0.8950,0.5532,-0.0857,-17.19,22.17,78.20
3580,2,0.0000,0.0000,0.0000,0.00,0.00,0.00
3580,3,0.9297,0.5642,-0.0171,-25.97,24.47,74.06
3580,4,0.9429,0.5398,0.0068,-30.49,24.47,71.05
3580,5,1.2078,0.7222,-0.1521,-21.34,9.94,73.10
3590,0,-0.5317,0.2403,0.9060,-17.55,-77.37,-10.03
3590,1,0.9324,0.5759,-0.0830,-19.34,13.68,77.40
3590,2,0.0000,0.0000,0.0000,0.00,0.00,0.00
3590,3,0.9829,0.5881,-0.0142,-27.89,14.67,73.79
3590,4,0.9927,0.5691,0.0151,-32.70,14.38,70.79
3590,5,1.2434,0.7466,-0.1475,-23.59,-0.52,72.55
3601,0,-0.5579,0.2508,0.9238,-7.80,-77.68,-12.34
3601,1,0.9607,0.5864,-0.0808,-21.63,1.18,77.79
3601,2,0.0000,0.0000,0.0000,0.00,0.00,0.00
3601,3,1.0164,0.5945,0.0046,-30.21,1.08,74.24
3601,4,1.0259,0.5684,0.0398,-35.25,0.27,70.99
3601,5,1.2844,0.7400,-0.1248,-26.06,-15.45,72.09
3611,0,-0.5523,0.2474,0.9565,9.17,-78.21,-14.84
3611,1,0.9832,0.5688,-0.0601,-24.29,-15.83,77.77
3611,2,0.0000,0.0000,0.0000,0.00,0.00,0.00
3611,3,1.0520,0.5725,0.0391,-32.92,-16.09,74.79
3611,4,1.0520,0.5415,0.0554,-38.27,-17.30,71.77
3611,5,1.2917,0.7085,-0.1152,-29.19,-32.43,72.23
3622,0,-0.5173,0.2413,0.9722,24.57,-79.01,-18.38
3622,1,1.0007,0.5356,-0.0449,-27.37,-33.42,78.41
3622,2,0.0000,0.0000,0.0000,0.00,0.00,0.00
3622,3,1.0645,0.5410,0.0388,-35.37,-33.28,75.66
3622,4,1.0425,0.5251,0.0569,-40.78,-34.11,73.13
3622,5,1.2544,0.6987,-0.1096,-32.00,-48.76,73.98
3632,0,-0.4993,0.2164,0.9315,42.14,-81.78,-19.62
3632,1,0.9932,0.5271,-0.0518,-27.86,-46.92,82.31
3632,2,0.0000,0.0000,0.0000,0.00,0.00,0.00
3632,3,1.0464,0.5371,0.0071,-35.57,-46.20,80.47
3632,4,1.0364,0.5081,0.0635,-40.79,-46.87,77.37
3632,5,1.2747,0.6750,-0.0908,-31.18,-61.98,77.16
3642,0,-0.4715,0.1867,0.9525,54.09,-85.17,-18.06
3642,1,0.9761,0.4834,-0.0620,-26.43,-59.69,84.78
3642,2,0.0000,0.0000,0.0000,0.00,0.00,0.00
3642,3,1.0093,0.4958,0.0022,-34.52,-58.38,83.21
3642,4,0.9988,0.4644,0.0442,-40.06,-58.69,80.34
3642,5,1.2280,0.6367,-0.1084,-30.50,-72.99,79.76
3653,0,-0.4309,0.1912,0.9002,66.76,-86.97,-16.89
3653,1,0.9167,0.4360,-0.0652,-25.04,-69.95,86.73
3653,2,0.0000,0.0000,0.0000,0.00,0.00,0.00
3653,3,0.9351,0.4568,-0.0103,-33.01,-67.66,85.65
3653,4,0.9290,0.4268,0.0293,-38.69,-67.01,82.95
3653,5,1.1497,0.5989,-0.1191,-29.07,-81.15,81.89
3664,0,-0.3894,0.1740,0.8530,73.52,-88.79,-14.42
3664,1,0.8669,0.4026,-0.0684,-23.04,-74.37,88.64
3664,2,0.0000,0.0000,0.0000,0.00,0.00,0.00
3664,3,0.8723,0.4180,-0.0164,-30.79,-70.92,87.54
3664,4,0.8503,0.3811,0.0186,-36.69,-70.03,85.04
3664,5,1.0762,0.5464,-0.1421,-26.72,-82.73,84.02
3673,0,-0.3447,0.1713,0.8011,74.13,-90.14,-11.99
3673,1,0.8416,0.3660,-0.0806,-21.08,-71.63,90.85
3673,2,0.0000,0.0000,0.0000,0.00,0.00,0.00
3673,3,0.8523,0.3850,-0.0273,-29.57,-67.10,89.91
3673,4,0.8518,0.3533,-0.0020,-35.71,-65.57,87.47
3673,5,1.0833,0.5203,-0.1543,-25.80,-78.70,86.24
3684,0,-0.3084,0.2026,0.8009,70.60,-92.19,-10.55
3684,1,0.8796,0.3237,-0.1040,-20.34,-68.18,93.34
3684,2,0.0000,0.0000,0.0000,0.00,0.00,0.00
3684,3,0.9182,0.3406,-0.0417,-29.04,-64.69,92.37
3684,4,0.9265,0.3074,-0.0129,-35.28,-63.66,89.94
3684,5,1.1792,0.4844,-0.1829,-25.37,-77.89,88.70
3695,0,-0.2801,0.2490,0.8808,70.46,-94.25,-9.94
3695,1,0.9453,0.3123,-0.1284,-19.94,-70.95,94.90
3695,2,0.0000,0.0000,0.0000,0.00,0.00,0.00
3695,3,0.9932,0.3354,-0.0535,-28.95,-68.55,94.56
3695,4,0.9954,0.3035,-0.0181,-35.57,-68.18,92.03
3695,5,1.2288,0.4790,-0.1843,-25.68,-82.79,90.85
3705,0,-0.2765,0.2777,0.9032,75.32,-96.16,-9.90
3705,1,0.9651,0.3267,-0.1299,-20.41,-77.63,97.85
3705,2,0.0000,0.0000,0.0000,0.00,0.00,0.00
3705,3,1.0146,0.3472,-0.0469,-29.47,-75.08,97.40
3705,4,1.0059,0.3140,-0.0005,-36.49,-74.78,95.18
3705,5,1.2351,0.4873,-0.1711,-26.29,-89.76,93.62
3715,0,-0.2808,0.2608,0.9102,83.07,-99.56,-9.59
3715,1,0.9717,0.3103,-0.0986,-20.06,-85.48,100.66
3715,2,0.0000,0.0000,0.0000,0.00,0.00,0.00
3715,3,1.0078,0.3359,-0.0195,-29.04,-83.28,100.27
3715,4,1.0076,0.3086,0.0288,-35.79,-83.48,97.77
3715,5,1.2456,0.4844,-0.1299,-25.68,-98.44,95.92
3726,0,-0.2729,0.2159,0.9333,91.35,-101.13,-7.66
3726,1,0.9658,0.3088,-0.0852,-17.71,-93.88,102.46
3726,2,0.0000,0.0000,0.0000,0.00,0.00,0.00
3726,3,1.0088,0.3503,-0.0042,-26.84,-91.89,102.38
3726,4,1.0029,0.3213,0.0442,-33.68,-91.76,99.91
3726,5,1.2544,0.4839,-0.1118,-23.36,-106.93,97.48
3736,0,-0.2779,0.2035,0.9532,100.43,-101.71,-5.25
3736,1,0.9478,0.2944,-0.0652,-15.57,-102.11,102.03
3736,2,0.0000,0.0000,0.0000,0.00,0.00,0.00
3736,3,0.9504,0.3037,0.0454,-24.73,-100.11,101.48
3736,4,0.9607,0.2712,0.0693,-32.23,-99.98,98.93
3736,5,1.2249,0.4316,-0.1064,-22.40,-114.14,95.76
3747,0,-0.2361,0.2065,0.9394,107.19,-100.10,-5.37
3747,1,0.9124,0.2534,-0.0522,-15.79,-107.05,99.71
3747,2,0.0000,0.0000,0.0000,0.00,0.00,0.00
3747,3,0.8994,0.2893,0.0125,-24.55,-102.46,99.88
3747,4,0.9089,0.2791,0.0320,-31.15,-101.01,97.54
3747,5,1.1533,0.4495,-0.1150,-21.11,-114.64,94.73
3757,0,-0.2428,0.1692,0.8907,106.36,-98.84,-3.15
3757,1,0.9131,0.2849,-0.0955,-11.62,-104.06,99.68
3757,2,0.0000,0.0000,0.0000,0.00,0.00,0.00
3757,3,0.9128,0.3394,-0.0701,-19.18,-99.19,100.31
3757,4,0.9270,0.3118,-0.0024,-25.30,-97.39,98.03
3757,5,1.1814,0.4822,-0.1243,-14.40,-111.27,94.96
3767,0,-0.2607,0.1534,0.9360,103.51,-97.44,5.13
3767,1,0.9360,0.2773,-0.1206,-3.10,-102.67,97.79
3767,2,0.0000,0.0000,0.0000,0.00,0.00,0.00
3767,3,0.9365,0.3223,-0.1060,-10.11,-97.86,98.47
3767,4,0.9543,0.2959,-0.0210,-15.79,-96.69,96.85
3767,5,1.2266,0.4631,-0.1272,-4.87,-110.98,93.16
3778,0,-0.2427,0.1721,0.9729,103.25,-92.61,13.02
3778,1,0.9497,0.2573,-0.1477,5.97,-102.63,94.35
3778,2,0.0000,0.0000,0.0000,0.00,0.00,0.00
3778,3,0.9541,0.3040,-0.1143,-1.08,-98.81,95.53
3778,4,0.9802,0.2693,-0.0396,-6.84,-98.00,94.52
3778,5,1.2478,0.4414,-0.1619,3.86,-111.94,90.35
3789,0,-0.2278,0.2418,0.9803,104.84,-88.53,19.97
3789,1,0.9558,0.2402,-0.1592,12.99,-105.60,90.38
3789,2,0.0000,0.0000,0.0000,0.00,0.00,0.00
3789,3,0.9590,0.2695,-0.1118,5.71,-102.41,92.03
3789,4,0.9902,0.2444,-0.0449,0.02,-101.86,91.40
3789,5,1.2546,0.4128,-0.1868,10.12,-116.20,86.89
3799,0,-0.2047,0.2715,0.9782,108.64,-83.18,25.13
3799,1,0.9509,0.2217,-0.1736,17.07,-110.14,86.11
3799,2,0.0000,0.0000,0.0000,0.00,0.00,0.00
3799,3,0.9570,0.2388,-0.1135,9.59,-106.95,88.14
3799,4,0.9839,0.2114,-0.0615,3.74,-106.82,87.82
3799,5,1.2520,0.3838,-0.2200,13.57,-121.01,83.05
3809,0,-0.1831,0.3096,0.9599,114.38,-79.26,27.32
3809,1,0.9456,0.1941,-0.1990,19.69,-116.06,81.71
3809,2,0.0000,0.0000,0.0000,0.00,0.00,0.00
3809,3,0.9587,0.2087,-0.1345,12.58,-113.57,84.41
3809,4,0.9907,0.1819,-0.0906,6.64,-113.69,84.08
3809,5,1.2556,0.3555,-0.2610,16.06,-127.94,79.13
3820,0,-0.1574,0.3545,0.9536,120.50,-74.55,28.72
3820,1,0.9451,0.1775,-0.2329,20.92,-123.33,77.34
3820,2,0.0000,0.0000,0.0000,0.00,0.00,0.00
3820,3,0.9551,0.1831,-0.1499,14.11,-120.46,80.37
3820,4,0.9814,0.1599,-0.1111,8.47,-120.64,80.05
3820,5,1.2505,0.3391,-0.2778,17.45,-134.47,74.69
3831,0,-0.1436,0.3727,0.9427,128.00,-70.46,29.07
3831,1,0.9231,0.1501,-0.2324,22.47,-129.44,72.66
3831,2,0.0000,0.0000,0.0000,0.00,0.00,0.00
3831,3,0.9363,0.1689,-0.1538,16.15,-127.36,76.06
3831,4,0.9622,0.1423,-0.1055,10.76,-127.56,76.23
3831,5,1.2170,0.3240,-0.2795,19.71,-140.99,70.92
3840,0,-0.1216,0.3566,0.9051,133.89,-66.15,30.69
3840,1,0.8992,0.1423,-0.2400,24.32,-134.44,69.69
3840,2,0.0000,0.0000,0.0000,0.00,0.00,0.00
3840,3,0.9141,0.1582,-0.1741,18.11,-131.59,73.74
3840,4,0.9319,0.1384,-0.1223,13.01,-131.24,74.41
3840,5,1.1804,0.3135,-0.2791,21.91,-144.49,68.63
3851,0,-0.1118,0.3564,0.8653,137.99,-64.26,32.01
3851,1,0.8804,0.1265,-0.2559,26.11,-137.95,67.24
3851,2,0.0000,0.0000,0.0000,0.00,0.00,0.00
3851,3,0.8765,0.1331,-0.1899,20.03,-134.84,70.98
3851,4,0.9153,0.1082,-0.1582,14.90,-134.05,71.42
3851,5,1.1672,0.2864,-0.3203,23.71,-146.61,65.54
3862,0,-0.0832,0.3967,0.8619,139.95,-60.64,33.04
3862,1,0.8667,0.0835,-0.2844,27.34,-139.51,64.02
3862,2,0.0000,0.0000,0.0000,0.00,0.00,0.00
3862,3,0.8767,0.0962,-0.2261,21.57,-136.11,68.31
3862,4,0.9036,0.0769,-0.1946,16.82,-135.21,68.79
3862,5,1.1487,0.2595,-0.3684,25.31,-147.22,63.01
3872,0,-0.0598,0.4227,0.8307,140.61,-58.10,33.99
3872,1,0.8643,0.0808,-0.3198,28.66,-138.11,61.86
3872,2,0.0000,0.0000,0.0000,0.00,0.00,0.00
3872,3,0.8845,0.0911,-0.2563,22.90,-134.52,66.85
3872,4,0.9050,0.0725,-0.2200,18.26,-133.79,67.77
3872,5,1.1404,0.2571,-0.3867,26.73,-146.14,62.09
3882,0,-0.0538,0.4412,0.8156,139.35,-56.38,35.38
3882,1,0.8618,0.0720,-0.3516,30.47,-137.42,60.44
3882,2,0.0000,0.0000,0.0000,0.00,0.00,0.00
3882,3,0.8828,0.0793,-0.2803,24.76,-134.09,65.08
3882,4,0.9031,0.0537,-0.2437,20.14,-133.47,66.11
3882,5,1.1460,0.2344,-0.4114,28.40,-145.91,59.95
3893,0,-0.0379,0.4728,0.8117,139.20,-54.55,36.51
3893,1,0.8496,0.0596,-0.3787,31.51,-137.65,58.63
3893,2,0.0000,0.0000,0.0000,0.00,0.00,0.00
3893,3,0.8718,0.0669,-0.3127,25.95,-134.46,63.39
3893,4,0.8945,0.0432,-0.2749,21.59,-134.00,64.26
3893,5,1.1348,0.2332,-0.4492,29.73,-146.52,58.49
3904,0,-0.0331,0.5025,0.7823,139.93,-52.62,37.43
3904,1,0.8176,0.0630,-0.4099,32.35,-138.35,57.08
3904,2,0.0000,0.0000,0.0000,0.00,0.00,0.00
3904,3,0.8606,0.0710,-0.3357,26.93,-135.33,62.24
3904,4,0.8750,0.0491,-0.3008,22.38,-134.99,63.45
3904,5,1.1006,0.2349,-0.4839,30.78,-147.39,57.92
3914,0,-0.0349,0.5283,0.7304,140.86,-52.06,37.85
3914,1,0.7959,0.0513,-0.4336,32.70,-139.50,56.93
3914,2,0.0000,0.0000,0.0000,0.00,0.00,0.00
3914,3,0.8345,0.0461,-0.3635,26.89,-136.26,62.12
3914,4,0.8552,0.0161,-0.3455,21.94,-135.95,63.44
3914,5,1.0891,0.1980,-0.5320,29.74,-148.20,57.68
3924,0,-0.0035,0.5906,0.7154,141.73,-51.82,36.82
3924,1,0.7751,0.0203,-0.4734,31.10,-140.67,56.08
3924,2,0.0000,0.0000,0.0000,0.00,0.00,0.00
3924,3,0.8059,0.0120,-0.3853,24.95,-137.56,61.15
3924,4,0.8345,-0.0149,-0.3726,20.09,-137.11,62.24
3924,5,1.0603,0.1772,-0.5854,27.69,-149.51,56.11
3935,0,0.0161,0.6323,0.6789,142.73,-51.21,34.25
3935,1,0.7500,0.0090,-0.5283,27.66,-140.40,54.89
3935,2,0.0000,0.0000,0.0000,0.00,0.00,0.00
3935,3,0.7820,0.0029,-0.4480,21.50,-136.43,59.71
3935,4,0.8184,-0.0171,-0.4475,16.53,-135.34,60.46
3935,5,1.0562,0.1709,-0.6404,24.29,-147.27,54.55
3946,0,0.0181,0.6976,0.6676,140.79,-50.29,30.08
3946,1,0.7522,0.0107,-0.5696,24.41,-137.80,53.68
3946,2,0.0000,0.0000,0.0000,0.00,0.00,0.00
3946,3,0.7864,-0.0020,-0.4871,18.31,-134.08,58.26
3946,4,0.8184,-0.0359,-0.4795,13.71,-133.22,58.84
3946,5,1.0535,0.1626,-0.6721,21.11,-144.99,53.30
3956,0,0.0303,0.7287,0.6606,137.83,-49.86,27.16
3956,1,0.7402,-0.0176,-0.6064,20.64,-135.02,52.63
3956,2,0.0000,0.0000,0.0000,0.00,0.00,0.00
3956,3,0.7764,-0.0310,-0.5168,14.50,-131.21,56.46
3956,4,0.8167,-0.0559,-0.5083,9.80,-129.98,56.69
3956,5,1.0574,0.1416,-0.7156,17.42,-141.83,51.44
3966,0,0.0508,0.7666,0.6564,135.31,-48.74,22.24
3966,1,0.7402,-0.0317,-0.6338,16.58,-133.24,50.85
3966,2,0.0000,0.0000,0.0000,0.00,0.00,0.00
3966,3,0.7786,-0.0420,-0.5408,10.72,-129.65,54.27
3966,4,0.8293,-0.0681,-0.5295,6.18,-128.85,54.34
3966,5,1.0662,0.1335,-0.7292,13.44,-141.04,48.95
3977,0,0.0594,0.7841,0.6683,134.56,-47.46,18.39
3977,1,0.7354,-0.0476,-0.6582,12.47,-132.15,47.57
3977,2,0.0000,0.0000,0.0000,0.00,0.00,0.00
3977,3,0.7415,-0.0735,-0.5693,6.60,-128.15,49.95
3977,4,0.8086,-0.1013,-0.5566,2.27,-126.72,49.33
3977,5,1.0659,0.1016,-0.7520,9.57,-137.86,43.73
3987,0,0.0847,0.8079,0.6850,131.18,-42.81,12.65
3987,1,0.7317,-0.0576,-0.6646,8.00,-126.73,42.20
3987,2,0.0000,0.0000,0.0000,0.00,0.00,0.00
3987,3,0.7456,-0.0728,-0.5842,2.99,-122.87,43.65
3987,4,0.8215,-0.0957,-0.5647,-0.58,-121.80,42.70
3987,5,1.0859,0.1047,-0.7556,6.67,-132.95,37.40
3998,0,0.0782,0.8022,0.6989,126.09,-38.01,9.03
3998,1,0.7517,-0.0308,-0.6631,5.59,-123.51,36.99
3998,2,0.0000,0.0000,0.0000,0.00,0.00,0.00
3998,3,0.7705,-0.0417,-0.5857,1.28,-120.15,38.84
3998,4,0.8352,-0.0627,-0.5513,-1.80,-119.36,38.08
3998,5,1.0784,0.1423,-0.7229,5.54,-130.43,32.93
4008,0,0.0476,0.7554,0.6915,123.92,-34.81,6.77
4008,1,0.7397,-0.0212,-0.6289,4.14,-120.99,33.39
4008,2,0.0000,0.0000,0.0000,0.00,0.00,0.00
4008,3,0.7537,-0.0400,-0.5510,-0.03,-117.71,34.85
4008,4,0.8127,-0.0681,-0.5222,-2.95,-116.98,34.03
4008,5,1.0547,0.1333,-0.7085,4.23,-127.82,28.99
4018,0,0.0559,0.7468,0.6701,121.05,-31.20,4.41
4018,1,0.7119,-0.0354,-0.6277,1.79,-118.46,29.60
4018,2,0.0000,0.0000,0.0000,0.00,0.00,0.00
4018,3,0.7400,-0.0474,-0.5562,-2.02,-115.77,31.33
4018,4,0.7896,-0.0715,-0.5374,-4.66,-115.05,30.41
4018,5,1.0349,0.1318,-0.7119,2.03,-126.06,25.89
4029,0,0.0584,0.7497,0.6384,119.61,-28.89,1.77
4029,1,0.6821,-0.0366,-0.6550,0.27,-117.98,27.13
4029,2,0.0000,0.0000,0.0000,0.00,0.00,0.00
4029,3,0.7161,-0.0464,-0.5974,-3.31,-115.91,28.41
4029,4,0.7651,-0.0718,-0.5730,-5.56,-115.56,27.40
4029,5,1.0071,0.1304,-0.7498,1.24,-126.93,22.78
4040,0,0.0622,0.7641,0.6038,120.82,-25.88,0.47
4040,1,0.6450,-0.0393,-0.6858,-0.67,-119.22,24.02
4040,2,0.0000,0.0000,0.0000,0.00,0.00,0.00
4040,3,0.6802,-0.0491,-0.6382,-4.02,-116.98,25.39
4040,4,0.7336,-0.0747,-0.6145,-5.85,-116.12,24.76
4040,5,0.9668,0.1294,-0.7839,0.84,-126.76,20.47
4049,0,0.0626,0.7925,0.5507,120.15,-23.98,-0.52
4049,1,0.6265,-0.0474,-0.7222,-1.11,-117.22,22.32
4049,2,0.0000,0.0000,0.0000,0.00,0.00,0.00
4049,3,0.6604,-0.0593,-0.6675,-4.24,-114.52,24.18
4049,4,0.7129,-0.0840,-0.6360,-6.26,-113.66,23.31
4049,5,0.9341,0.1121,-0.8120,0.53,-124.32,19.28
4060,0,0.0760,0.7978,0.5146,118.04,-22.77,-1.07
4060,1,0.6025,-0.0552,-0.7285,-2.06,-114.95,21.62
4060,2,0.0000,0.0000,0.0000,0.00,0.00,0.00
4060,3,0.6294,-0.0715,-0.6655,-5.21,-111.92,23.18
4060,4,0.6755,-0.0942,-0.6458,-7.40,-110.53,22.41
4060,5,0.8989,0.1106,-0.8271,-0.90,-120.61,18.38
4070,0,0.0797,0.8095,0.4790,113.96,-22.42,-2.59
4070,1,0.5769,-0.0569,-0.7312,-3.92,-109.54,21.02
4070,2,0.0000,0.0000,0.0000,0.00,0.00,0.00
4070,3,0.6182,-0.0735,-0.6785,-7.21,-106.21,22.11
4070,4,0.6743,-0.0989,-0.6619,-9.16,-104.90,20.96
4070,5,0.9075,0.1094,-0.8284,-2.32,-115.80,17.28
4081,0,0.0830,0.8203,0.4985,109.39,-21.25,-4.71
4081,1,0.5859,-0.0520,-0.7415,-5.05,-105.33,18.82
4081,2,0.0000,0.0000,0.0000,0.00,0.00,0.00
4081,3,0.6240,-0.0688,-0.6814,-8.26,-103.10,19.59
4081,4,0.6831,-0.0930,-0.6589,-9.69,-102.32,18.43
4081,5,0.9167,0.1099,-0.8298,-2.95,-112.78,14.67
4091,0,0.0769,0.8111,0.5019,106.26,-19.18,-5.79
4091,1,0.5786,-0.0566,-0.7417,-5.97,-103.30,16.35
4091,2,0.0000,0.0000,0.0000,0.00,0.00,0.00
4091,3,0.6094,-0.0701,-0.6943,-8.67,-101.04,16.93
4091,4,0.6753,-0.0930,-0.6685,-9.95,-100.46,15.71
4091,5,0.9026,0.1177,-0.8398,-3.60,-110.79,12.27
4102,0,0.0753,0.8181,0.4882,104.58,-16.80,-6.79
4102,1,0.5605,-0.0532,-0.7581,-6.46,-101.25,14.58
4102,2,0.0000,0.0000,0.0000,0.00,0.00,0.00
4102,3,0.6106,-0.0605,-0.7207,-8.89,-98.95,15.07
4102,4,0.6599,-0.0889,-0.6917,-9.97,-97.97,14.17
4102,5,0.8855,0.1248,-0.8672,-3.45,-108.00,10.93
4112,0,0.0700,0.8327,0.4505,101.10,-15.99,-6.97
4112,1,0.5615,-0.0432,-0.7974,-6.20,-97.63,14.37
4112,2,0.0000,0.0000,0.0000,0.00,0.00,0.00
4112,3,0.6223,-0.0542,-0.7542,-8.31,-95.31,15.45
4112,4,0.6624,-0.0757,-0.7275,-9.57,-94.49,14.76
4112,5,0.8730,0.1323,-0.8884,-2.98,-105.05,11.51
4123,0,0.0655,0.8477,0.4229,98.51,-16.87,-5.95
4123,1,0.5347,-0.0430,-0.8071,-5.42,-96.03,15.33
4123,2,0.0000,0.0000,0.0000,0.00,0.00,0.00
4123,3,0.6028,-0.0535,-0.7605,-7.92,-94.00,16.66
4123,4,0.6414,-0.0813,-0.7288,-9.45,-93.48,15.86
4123,5,0.8433,0.1294,-0.8938,-2.78,-104.05,13.07
4132,0,0.0681,0.8566,0.3914,97.49,-17.76,-5.72
4132,1,0.5034,-0.0437,-0.8059,-5.53,-94.99,16.50
4132,2,0.0000,0.0000,0.0000,0.00,0.00,0.00
4132,3,0.5659,-0.0605,-0.7639,-7.97,-92.98,17.68
4132,4,0.6082,-0.0771,-0.7417,-9.39,-92.09,16.75
4132,5,0.8174,0.1311,-0.9033,-2.75,-102.69,13.94
4143,0,0.0672,0.8539,0.3637,96.11,-18.62,-5.57
4143,1,0.4863,-0.0442,-0.8135,-5.47,-93.22,17.59
4143,2,0.0000,0.0000,0.0000,0.00,0.00,0.00
4143,3,0.5481,-0.0605,-0.7598,-8.32,-90.82,18.70
4143,4,0.5876,-0.0837,-0.7385,-10.05,-90.12,17.95
4143,5,0.7957,0.1238,-0.9060,-3.50,-100.61,14.98
4154,0,0.0715,0.8639,0.3471,93.80,-19.86,-6.12
4154,1,0.4702,-0.0537,-0.8147,-6.70,-90.82,18.50
4154,2,0.0000,0.0000,0.0000,0.00,0.00,0.00
4154,3,0.5225,-0.0667,-0.7651,-10.09,-88.55,19.21
4154,4,0.5789,-0.0940,-0.7537,-11.51,-87.71,18.17
4154,5,0.7878,0.1184,-0.9316,-5.33,-98.24,15.57
4164,0,0.0775,0.8786,0.3381,91.35,-20.48,-7.53
4164,1,0.4629,-0.0481,-0.8271,-7.94,-88.15,19.10
4164,2,0.0000,0.0000,0.0000,0.00,0.00,0.00
4164,3,0.5205,-0.0669,-0.7920,-10.72,-85.82,19.54
4164,4,0.5737,-0.0884,-0.7681,-12.43,-85.27,18.40
4164,5,0.7908,0.1201,-0.9309,-5.63,-96.18,15.44
4174,0,0.0727,0.8744,0.3393,89.41,-20.81,-7.63
4174,1,0.4536,-0.0576,-0.8274,-7.82,-87.40,19.04
4174,2,0.0000,0.0000,0.0000,0.00,0.00,0.00
4174,3,0.5244,-0.0771,-0.7913,-10.78,-85.57,19.24
4174,4,0.5825,-0.0991,-0.7649,-12.08,-85.33,17.97
4174,5,0.8074,0.1116,-0.9294,-5.50,-96.24,15.24
4185,0,0.0848,0.8768,0.3583,89.97,-20.35,-7.98
4185,1,0.4561,-0.0627,-0.8313,-8.11,-89.16,17.74
4185,2,0.0000,0.0000,0.0000,0.00,0.00,0.00
4185,3,0.5205,-0.0803,-0.7817,-10.64,-88.06,18.08
4185,4,0.5859,-0.1013,-0.7524,-11.95,-87.79,16.52
4185,5,0.8062,0.1055,-0.9143,-5.44,-98.99,13.42
4195,0,0.0860,0.8635,0.3601,92.38,-18.78,-7.95
4195,1,0.4458,-0.0669,-0.8159,-7.83,-92.58,16.44
4195,2,0.0000,0.0000,0.0000,0.00,0.00,0.00
4195,3,0.5120,-0.0806,-0.7698,-10.34,-91.79,16.98
4195,4,0.5637,-0.1060,-0.7463,-11.68,-91.62,15.79
4195,5,0.7812,0.0996,-0.9043,-5.04,-102.98,12.66
4206,0,0.0916,0.8553,0.3255,96.57,-18.09,-7.95
4206,1,0.4163,-0.0703,-0.8125,-7.85,-95.94,15.92
4206,2,0.0000,0.0000,0.0000,0.00,0.00,0.00
4206,3,0.4888,-0.0806,-0.7771,-10.41,-94.64,16.67
4206,4,0.5371,-0.1008,-0.7527,-11.40,-94.37,15.54
4206,5,0.7471,0.1079,-0.9153,-4.92,-105.34,12.41
4216,0,0.0848,0.8519,0.2960,98.88,-17.89,-7.93
4216,1,0.3960,-0.0554,-0.8301,-7.40,-97.56,15.62
4216,2,0.0000,0.0000,0.0000,0.00,0.00,0.00
4216,3,0.4619,-0.0625,-0.8079,-9.50,-95.83,16.58
4216,4,0.5081,-0.0874,-0.7817,-10.73,-95.63,15.51
4216,5,0.7200,0.1243,-0.9314,-4.03,-106.17,12.53
4226,0,0.0732,0.8523,0.2647,99.77,-17.75,-6.89
4226,1,0.3723,-0.0535,-0.8435,-6.02,-97.92,16.00
4226,2,0.0000,0.0000,0.0000,0.00,0.00,0.00
4226,3,0.4380,-0.0654,-0.8191,-8.29,-96.29,16.95
4226,4,0.4875,-0.0942,-0.7959,-9.65,-95.82,16.00
4226,5,0.6892,0.1226,-0.9543,-3.24,-106.55,12.79
4237,0,0.0789,0.8703,0.2318,100.24,-17.92,-5.91
4237,1,0.3342,-0.0598,-0.8596,-5.40,-98.24,16.40
4237,2,0.0000,0.0000,0.0000,0.00,0.00,0.00
4237,3,0.4001,-0.0708,-0.8345,-8.09,-96.31,17.28
4237,4,0.4492,-0.0967,-0.8191,-9.27,-95.56,16.55
4237,5,0.6594,0.1150,-0.9797,-2.63,-106.32,13.39
4247,0,0.0817,0.8866,0.2015,99.59,-18.20,-5.64
4247,1,0.3152,-0.0640,-0.8792,-5.24,-96.70,16.24
4247,2,0.0000,0.0000,0.0000,0.00,0.00,0.00
4247,3,0.3718,-0.0857,-0.8557,-7.69,-94.49,17.22
4247,4,0.4360,-0.1094,-0.8438,-9.28,-93.71,16.14
4247,5,0.6475,0.1074,-1.0085,-2.63,-104.20,12.73
4257,0,0.0952,0.9109,0.1957,97.68,-17.41,-5.58
4257,1,0.2959,-0.0767,-0.8936,-5.45,-94.46,15.16
4257,2,0.0000,0.0000,0.0000,0.00,0.00,0.00
4257,3,0.3477,-0.1013,-0.8650,-8.08,-92.53,15.71
4257,4,0.4146,-0.1218,-0.8513,-9.27,-91.71,14.55
4257,5,0.6404,0.0884,-1.0105,-2.82,-102.34,10.99
4268,0,0.1021,0.9241,0.1837,95.55,-15.89,-6.39
4268,1,0.2786,-0.0762,-0.8967,-6.24,-92.78,13.28
4268,2,0.0000,0.0000,0.0000,0.00,0.00,0.00
4268,3,0.3274,-0.0989,-0.8704,-8.90,-90.81,13.59
4268,4,0.3999,-0.1240,-0.8572,-9.94,-90.02,12.34
4268,5,0.6238,0.0906,-1.0229,-3.44,-100.27,9.05
4278,0,0.0981,0.9329,0.1742,93.64,-14.28,-8.05
4278,1,0.2715,-0.0784,-0.9094,-7.40,-89.69,10.95
4278,2,0.0000,0.0000,0.0000,0.00,0.00,0.00
4278,3,0.3154,-0.0999,-0.8875,-10.03,-87.15,10.76
4278,4,0.3953,-0.1274,-0.8789,-10.93,-86.09,9.15
4278,5,0.6240,0.0879,-1.0461,-4.66,-95.91,6.18
4289,0,0.0985,0.9559,0.1828,88.81,-11.27,-9.29
4289,1,0.2815,-0.0659,-0.9443,-8.32,-84.70,7.89
4289,2,0.0000,0.0000,0.0000,0.00,0.00,0.00
4289,3,0.3376,-0.0820,-0.9299,-10.18,-82.20,7.91
4289,4,0.4124,-0.1008,-0.9185,-10.63,-80.87,6.56
4289,5,0.6399,0.1167,-1.0713,-4.31,-90.98,3.45
4298,0,0.0798,0.9611,0.1902,83.98,-9.08,-9.33
4298,1,0.2834,-0.0632,-0.9500,-7.66,-80.82,5.31
4298,2,0.0000,0.0000,0.0000,0.00,0.00,0.00
4298,3,0.3447,-0.0857,-0.9395,-9.44,-78.90,5.10
4298,4,0.4297,-0.1121,-0.9055,-9.50,-78.44,3.57
4298,5,0.6553,0.1052,-1.0688,-3.51,-88.43,0.78
4309,0,0.0870,0.9728,0.1997,81.93,-5.65,-9.36
4309,1,0.2859,-0.0645,-0.9558,-7.73,-78.06,2.32
4309,2,0.0000,0.0000,0.0000,0.00,0.00,0.00
4309,3,0.3496,-0.0935,-0.9385,-9.40,-75.83,1.88
4309,4,0.4255,-0.1150,-0.9167,-9.63,-75.04,0.53
4309,5,0.6499,0.1025,-1.0776,-3.74,-85.02,-2.27
4320,0,0.0902,0.9866,0.1847,78.08,-3.31,-10.29
4320,1,0.2842,-0.0608,-0.9648,-8.21,-74.95,-0.46
4320,2,0.0000,0.0000,0.0000,0.00,0.00,0.00
4320,3,0.3411,-0.0872,-0.9453,-9.94,-73.30,-0.93
4320,4,0.4209,-0.1047,-0.9316,-9.92,-72.55,-2.26
4320,5,0.6465,0.1133,-1.0916,-3.94,-82.81,-4.64
4330,0,0.0792,0.9910,0.1809,76.12,-1.09,-11.23
4330,1,0.2725,-0.0527,-0.9768,-8.87,-73.33,-3.02
4330,2,0.0000,0.0000,0.0000,0.00,0.00,0.00
4330,3,0.3350,-0.0728,-0.9507,-9.95,-71.76,-3.28
4330,4,0.4050,-0.0959,-0.9358,-9.86,-71.16,-4.69
4330,5,0.6182,0.1260,-1.0986,-4.27,-81.02,-7.24
4340,0,0.0719,0.9870,0.1523,74.41,1.14,-11.71
4340,1,0.2473,-0.0444,-0.9709,-8.87,-71.54,-4.14
4340,2,0.0000,0.0000,0.0000,0.00,0.00,0.00
4340,3,0.3149,-0.0605,-0.9536,-10.15,-69.97,-4.40
4340,4,0.3760,-0.0862,-0.9392,-9.73,-69.62,-5.48
4340,5,0.5791,0.1331,-1.0847,-4.00,-79.42,-7.25
4350,0,0.0630,0.9726,0.0904,73.06,1.21,-11.53
4350,1,0.2153,-0.0303,-0.9795,-8.64,-70.09,-3.71
4350,2,0.0000,0.0000,0.0000,0.00,0.00,0.00
4350,3,0.2947,-0.0498,-0.9714,-9.65,-68.32,-3.51
4350,4,0.3450,-0.0698,-0.9546,-9.04,-67.71,-4.23
4350,5,0.5383,0.1492,-1.1038,-3.08,-77.74,-6.21
4361,0,0.0514,0.9670,0.0538,71.00,0.16,-10.34
4361,1,0.1924,-0.0247,-1.0002,-7.31,-67.79,-1.91
4361,2,0.0000,0.0000,0.0000,0.00,0.00,0.00
4361,3,0.2671,-0.0417,-0.9978,-8.21,-65.76,-1.47
4361,4,0.3171,-0.0596,-0.9785,-7.91,-64.79,-2.31
4361,5,0.5059,0.1584,-1.1250,-1.60,-74.49,-3.80
4371,0,0.0436,0.9740,0.0144,67.51,-1.66,-8.65
4371,1,0.1672,-0.0149,-1.0088,-5.51,-63.69,0.34
4371,2,0.0000,0.0000,0.0000,0.00,0.00,0.00
4371,3,0.2512,-0.0281,-1.0171,-6.69,-61.47,1.05
4371,4,0.2964,-0.0461,-0.9963,-6.32,-60.32,0.49
4371,5,0.4839,0.1611,-1.1345,-0.20,-70.15,-0.95
4381,0,0.0479,0.9998,0.0023,63.58,-3.99,-6.58
4381,1,0.1523,-0.0093,-1.0137,-4.50,-59.95,2.99
4381,2,0.0000,0.0000,0.0000,0.00,0.00,0.00
4381,3,0.2490,0.0088,-1.0188,-5.60,-57.44,4.40
4381,4,0.2651,-0.0137,-0.9988,-5.45,-55.91,3.82
4381,5,0.4792,0.1960,-1.1060,1.21,-66.23,2.15
4391,0,0.0092,0.9468,-0.0105,59.01,-6.28,-4.01
4391,1,0.1528,0.0002,-1.0095,-1.86,-55.59,5.76
4391,2,0.0000,0.0000,0.0000,0.00,0.00,0.00
4391,3,0.2373,-0.0200,-1.0071,-3.89,-52.70,6.61
4391,4,0.2957,-0.0549,-1.0017,-4.12,-51.36,5.76
4391,5,0.5027,0.1611,-1.1511,2.02,-62.02,4.17
4402,0,0.0333,1.0106,0.0061,54.97,-8.19,-3.06
4402,1,0.1604,-0.0024,-1.0120,-2.24,-51.98,7.48
4402,2,0.0000,0.0000,0.0000,0.00,0.00,0.00
4402,3,0.2432,-0.0352,-0.9978,-4.35,-49.66,7.76
4402,4,0.3088,-0.0615,-0.9897,-4.90,-48.98,6.70
4402,5,0.5100,0.1599,-1.1519,1.16,-59.24,5.65
4412,0,0.0331,1.0115,0.0124,52.22,-9.48,-3.48
4412,1,0.1614,-0.0068,-0.9961,-2.73,-49.50,8.53
4412,2,0.0000,0.0000,0.0000,0.00,0.00,0.00
4412,3,0.2375,-0.0327,-0.9883,-4.76,-47.31,8.38
4412,4,0.3000,-0.0515,-0.9788,-5.07,-46.49,7.25
4412,5,0.5098,0.1653,-1.1309,1.34,-56.75,6.12
4422,0,0.0312,0.9883,0.0305,49.91,-9.82,-3.15
4422,1,0.1658,-0.0164,-0.9998,-2.20,-47.01,8.52
4422,2,0.0000,0.0000,0.0000,0.00,0.00,0.00
4422,3,0.2415,-0.0471,-0.9822,-4.52,-45.16,7.94
4422,4,0.3203,-0.0723,-0.9717,-4.87,-44.79,6.75
4422,5,0.5273,0.1472,-1.1265,1.05,-55.56,5.47
4432,0,0.0455,0.9987,0.0405,48.58,-9.12,-3.45
4432,1,0.1663,-0.0271,-0.9897,-2.58,-45.98,7.45
4432,2,0.0000,0.0000,0.0000,0.00,0.00,0.00
4432,3,0.2434,-0.0552,-0.9761,-4.89,-44.08,6.98
4432,4,0.3098,-0.0713,-0.9648,-5.07,-43.83,5.56
4432,5,0.5242,0.1436,-1.1184,1.02,-54.53,4.41
4443,0,0.0462,0.9921,0.0398,47.62,-8.12,-3.97
4443,1,0.1643,-0.0234,-0.9861,-3.31,-45.27,6.49
4443,2,0.0000,0.0000,0.0000,0.00,0.00,0.00
4443,3,0.2385,-0.0449,-0.9761,-5.40,-43.73,6.02
4443,4,0.2981,-0.0713,-0.9746,-5.68,-42.90,5.01
4443,5,0.5171,0.1450,-1.1238,0.49,-53.68,3.48
4453,0,0.0478,0.9980,0.0277,46.76,-7.54,-4.74
4453,1,0.1470,-0.0105,-0.9939,-3.34,-45.16,6.58
4453,2,0.0000,0.0000,0.0000,0.00,0.00,0.00
4453,3,0.2314,-0.0361,-0.9973,-5.36,-43.15,6.23
4453,4,0.3054,-0.0564,-0.9768,-5.48,-43.11,5.02
4453,5,0.5100,0.1646,-1.1169,1.11,-53.66,4.05
4463,0,0.0326,0.9815,0.0121,47.34,-8.02,-4.08
4463,1,0.1409,-0.0056,-0.9907,-2.43,-45.59,6.95
4463,2,0.0000,0.0000,0.0000,0.00,0.00,0.00
4463,3,0.2249,-0.0244,-0.9883,-4.32,-44.20,6.82
4463,4,0.2852,-0.0532,-0.9751,-4.56,-44.00,5.85
4463,5,0.4746,0.1670,-1.1177,2.12,-54.52,4.76
4473,0,0.0287,0.9687,-0.0224,47.81,-8.73,-2.87
4473,1,0.1086,-0.0078,-0.9807,-1.71,-46.03,8.17
4473,2,0.0000,0.0000,0.0000,0.00,0.00,0.00
4473,3,0.1938,-0.0303,-0.9729,-3.79,-44.53,8.49
4473,4,0.2510,-0.0488,-0.9646,-4.14,-44.12,7.69
4473,5,0.4451,0.1697,-1.1118,2.12,-54.79,6.73
4484,0,0.0283,0.9564,-0.0510,47.88,-10.40,-2.05
4484,1,0.0837,-0.0071,-0.9673,-0.99,-46.11,9.89
4484,2,0.0000,0.0000,0.0000,0.00,0.00,0.00
4484,3,0.1641,-0.0278,-0.9670,-3.08,-44.41,9.98
4484,4,0.2253,-0.0537,-0.9617,-3.65,-43.91,9.08
4484,5,0.4229,0.1641,-1.1101,2.87,-54.85,8.12
4494,0,0.0303,0.9488,-0.0737,47.97,-11.41,-1.33
4494,1,0.0557,-0.0034,-0.9624,-0.50,-45.62,10.85
4494,2,0.0000,0.0000,0.0000,0.00,0.00,0.00
4494,3,0.1309,-0.0249,-0.9634,-2.95,-43.89,10.90
4494,4,0.1868,-0.0464,-0.9587,-3.42,-43.11,10.03
4494,5,0.3833,0.1724,-1.1018,3.16,-54.02,9.07
4504,0,0.0212,0.9335,-0.1032,47.09,-12.23,-0.67
4504,1,0.0310,0.0000,-0.9575,-0.12,-43.66,12.24
4504,2,0.0000,0.0000,0.0000,0.00,0.00,0.00
4504,3,0.1118,-0.0193,-0.9685,-2.43,-41.28,11.98
4504,4,0.1709,-0.0405,-0.9656,-3.04,-40.44,11.44
4504,5,0.3638,0.1777,-1.1038,3.50,-50.84,10.37
4514,0,0.0212,0.9309,-0.1080,43.49,-13.37,0.09
4514,1,0.0396,-0.0085,-0.9702,0.82,-40.29,12.82
4514,2,0.0000,0.0000,0.0000,0.00,0.00,0.00
4514,3,0.1201,-0.0259,-0.9778,-1.34,-38.11,12.47
4514,4,0.1868,-0.0444,-0.9758,-1.63,-37.22,11.50
4514,5,0.3997,0.1663,-1.1086,5.16,-47.13,10.40
4525,0,0.0293,0.9357,-0.0584,40.23,-12.72,2.00
4525,1,0.0811,-0.0244,-0.9897,2.60,-36.95,11.62
4525,2,0.0000,0.0000,0.0000,0.00,0.00,0.00
4525,3,0.1455,-0.0464,-0.9978,0.29,-34.41,10.84
4525,4,0.2410,-0.0735,-0.9944,0.12,-33.79,9.65
4525,5,0.4741,0.1462,-1.1270,6.70,-44.76,8.35
4536,0,0.0489,0.9760,0.0077,37.82,-9.90,2.68
4536,1,0.1133,-0.0283,-0.9944,3.80,-36.11,8.44
4536,2,0.0000,0.0000,0.0000,0.00,0.00,0.00
4536,3,0.1860,-0.0444,-0.9963,1.83,-34.12,7.74
4536,4,0.2734,-0.0632,-0.9753,1.94,-33.45,6.92
4536,5,0.4897,0.1477,-1.1135,8.53,-44.38,5.65
4545,0,0.0465,0.9656,0.0157,37.66,-7.24,3.73
4545,1,0.1162,-0.0339,-0.9878,5.33,-35.69,6.20
4545,2,0.0000,0.0000,0.0000,0.00,0.00,0.00
4545,3,0.1943,-0.0540,-0.9912,3.56,-33.82,5.53
4545,4,0.2683,-0.0710,-0.9736,3.62,-33.82,4.98
4545,5,0.4880,0.1499,-1.1208,10.00,-44.55,3.74
4556,0,0.0482,0.9690,0.0028,37.75,-5.16,4.97
4556,1,0.1169,-0.0234,-0.9905,6.55,-36.60,4.82
4556,2,0.0000,0.0000,0.0000,0.00,0.00,0.00
4556,3,0.1997,-0.0415,-0.9890,4.79,-35.45,4.82
4556,4,0.2671,-0.0654,-0.9807,4.87,-35.22,4.50
4556,5,0.4709,0.1543,-1.1157,11.40,-46.76,3.37
4566,0,0.0436,0.9700,-0.0218,40.04,-4.60,5.97
4566,1,0.1003,-0.0237,-0.9944,7.59,-39.40,4.35
4566,2,0.0000,0.0000,0.0000,0.00,0.00,0.00
4566,3,0.1841,-0.0417,-0.9946,6.05,-38.29,5.13
4566,4,0.2527,-0.0652,-0.9866,5.94,-38.02,4.53
4566,5,0.4390,0.1545,-1.1262,12.40,-49.21,3.28
4577,0,0.0467,0.9717,-0.0526,42.31,-4.81,7.21
4577,1,0.0720,-0.0286,-0.9978,8.63,-41.34,5.04
4577,2,0.0000,0.0000,0.0000,0.00,0.00,0.00
4577,3,0.1621,-0.0461,-0.9988,6.67,-40.02,5.69
4577,4,0.2239,-0.0725,-0.9875,6.82,-40.03,5.57
4577,5,0.4192,0.1494,-1.1438,12.64,-50.93,4.32
4586,0,0.0517,0.9759,-0.0787,44.49,-5.30,7.84
4586,1,0.0496,-0.0276,-0.9980,9.05,-42.73,5.85
4586,2,0.0000,0.0000,0.0000,0.00,0.00,0.00
4586,3,0.1299,-0.0566,-1.0027,6.93,-41.51,6.67
4586,4,0.1907,-0.0774,-1.0029,6.40,-41.10,6.46
4586,5,0.3933,0.1414,-1.1550,12.72,-51.51,5.30
4597,0,0.0545,0.9838,-0.1161,44.87,-6.07,7.54
4597,1,0.0083,-0.0283,-0.9824,8.70,-44.41,7.79
4597,2,0.0000,0.0000,0.0000,0.00,0.00,0.00
4597,3,0.1045,-0.0476,-0.9929,6.46,-42.72,8.82
4597,4,0.1531,-0.0610,-0.9937,5.97,-41.83,8.89
4597,5,0.3389,0.1572,-1.1509,12.61,-52.44,7.71
4608,0,0.0426,0.9620,-0.1604,45.41,-8.85,8.12
4608,1,-0.0161,-0.0229,-0.9907,8.82,-43.33,9.76
4608,2,0.0000,0.0000,0.0000,0.00,0.00,0.00
4608,3,0.0732,-0.0476,-0.9895,6.17,-41.39,10.56
4608,4,0.1333,-0.0713,-0.9949,5.76,-40.96,10.47
4608,5,0.3308,0.1494,-1.1533,12.34,-52.11,9.15
4618,0,0.0501,0.9643,-0.1664,44.89,-9.94,8.00
4618,1,-0.0220,-0.0352,-0.9897,8.31,-42.08,10.60
4618,2,0.0000,0.0000,0.0000,0.00,0.00,0.00
4618,3,0.0471,-0.0627,-0.9944,5.79,-39.76,10.90
4618,4,0.1177,-0.0825,-0.9990,5.01,-38.92,10.55
4618,5,0.3289,0.1343,-1.1467,11.31,-49.47,9.19
4628,0,0.0601,0.9700,-0.1556,42.74,-10.01,7.14
4628,1,-0.0198,-0.0396,-0.9910,7.54,-39.36,10.17
4628,2,0.0000,0.0000,0.0000,0.00,0.00,0.00
4628,3,0.0459,-0.0686,-0.9905,4.82,-36.85,10.02
4628,4,0.1245,-0.0952,-0.9983,4.50,-36.37,9.22
4628,5,0.3477,0.1233,-1.1504,10.85,-46.98,8.03
4638,0,0.0661,0.9751,-0.1225,39.74,-8.80,6.34
4638,1,-0.0017,-0.0742,-1.0120,6.49,-36.75,8.00
4638,2,0.0000,0.0000,0.0000,0.00,0.00,0.00
4638,3,0.0530,-0.1340,-1.0120,2.69,-33.92,6.90
4638,4,0.1616,-0.1367,-1.0149,1.98,-33.79,6.06
4638,5,0.3748,0.1016,-1.1855,7.95,-44.81,4.61
4649,0,0.0725,0.9976,-0.1125,38.19,-7.11,3.41
4649,1,0.0237,-0.0435,-1.0022,5.02,-35.39,5.33
4649,2,0.0000,0.0000,0.0000,0.00,0.00,0.00
4649,3,0.0989,-0.0886,-1.0134,2.75,-33.47,4.50
4649,4,0.1843,-0.1113,-1.0146,2.63,-33.73,3.76
4649,5,0.3948,0.1201,-1.1440,8.82,-44.96,2.98
4659,0,0.0760,0.9872,-0.1027,38.38,-4.62,3.90
4659,1,0.0364,-0.0537,-1.0188,5.56,-36.11,4.24
4659,2,0.0000,0.0000,0.0000,0.00,0.00,0.00
4659,3,0.1204,-0.0737,-1.0269,3.85,-34.89,4.35
4659,4,0.1902,-0.0938,-1.0125,3.88,-35.44,3.94
4659,5,0.3938,0.1270,-1.1631,10.43,-46.93,2.75
4669,0,0.0715,0.9948,-0.1064,40.15,-4.32,4.92
4669,1,0.0188,-0.0496,-1.0286,6.58,-39.66,3.66
4669,2,0.0000,0.0000,0.0000,0.00,0.00,0.00
4669,3,0.1042,-0.0735,-1.0237,4.43,-39.18,3.80
4669,4,0.1772,-0.0979,-1.0188,4.47,-39.31,3.28
4669,5,0.3862,0.1213,-1.1680,10.40,-50.79,1.82
4679,0,0.0726,1.0066,-0.1147,44.78,-3.26,4.71
4679,1,0.0039,-0.0547,-1.0239,5.97,-44.12,2.75
4679,2,0.0000,0.0000,0.0000,0.00,0.00,0.00
4679,3,0.0989,-0.0845,-1.0137,3.94,-43.40,3.07
4679,4,0.1633,-0.1033,-1.0081,3.89,-43.95,2.70
4679,5,0.3572,0.1177,-1.1619,9.85,-55.22,1.42
4690,0,0.0793,0.9965,-0.1604,49.02,-3.54,3.92
4690,1,-0.0217,-0.0388,-1.0168,5.40,-48.29,3.48
4690,2,0.0000,0.0000,0.0000,0.00,0.00,0.00
4690,3,0.0750,-0.0581,-1.0156,3.63,-47.48,3.89
4690,4,0.1416,-0.0859,-1.0183,3.77,-47.56,3.48
4690,5,0.3467,0.1470,-1.1602,9.85,-58.55,1.74
4700,0,0.0538,0.9839,-0.1536,51.90,-3.61,4.04
4700,1,-0.0320,-0.0364,-1.0134,5.50,-51.95,3.08
4700,2,0.0000,0.0000,0.0000,0.00,0.00,0.00
4700,3,0.0630,-0.0693,-1.0125,3.57,-51.18,3.57
4700,4,0.1292,-0.0977,-1.0164,3.62,-51.21,3.01
4700,5,0.3330,0.1179,-1.1638,9.27,-62.23,1.28
4710,0,0.0706,0.9949,-0.1686,56.17,-3.33,3.50
4710,1,-0.0513,-0.0559,-1.0105,4.70,-55.33,2.89
4710,2,0.0000,0.0000,0.0000,0.00,0.00,0.00
4710,3,0.0488,-0.0864,-1.0037,2.63,-54.60,3.53
4710,4,0.1055,-0.1062,-1.0186,2.34,-54.56,3.19
4710,5,0.3071,0.1182,-1.1653,8.26,-65.59,1.25
4720,0,0.0773,0.9831,-0.2004,59.15,-3.62,2.22
4720,1,-0.0789,-0.0430,-1.0056,3.71,-58.87,3.34
4720,2,0.0000,0.0000,0.0000,0.00,0.00,0.00
4720,3,0.0105,-0.0620,-1.0110,2.08,-58.00,4.09
4720,4,0.0688,-0.0852,-1.0159,1.97,-58.14,3.62
4720,5,0.2634,0.1426,-1.1506,7.98,-68.99,2.02
4731,0,0.0600,0.9626,-0.2401,62.26,-4.80,2.48
4731,1,-0.1121,-0.0415,-1.0012,3.86,-61.82,4.55
4731,2,0.0000,0.0000,0.0000,0.00,0.00,0.00
4731,3,-0.0234,-0.0671,-1.0081,2.02,-60.55,5.44
4731,4,0.0344,-0.0859,-1.0178,1.74,-60.14,5.11
4731,5,0.2231,0.1348,-1.1667,7.85,-70.67,3.31
4741,0,0.0621,0.9583,-0.2758,63.82,-6.02,2.40
4741,1,-0.1367,-0.0383,-0.9949,3.80,-61.36,5.51
4741,2,0.0000,0.0000,0.0000,0.00,0.00,0.00
4741,3,-0.0601,-0.0632,-1.0044,1.77,-59.47,6.20
4741,4,0.0059,-0.0857,-1.0176,1.25,-58.90,5.60
4741,5,0.2249,0.1367,-1.1633,7.25,-69.16,3.48
4751,0,0.0599,0.9625,-0.2571,62.72,-5.83,1.87
4751,1,-0.1372,-0.0437,-0.9954,2.81,-59.92,4.46
4751,2,0.0000,0.0000,0.0000,0.00,0.00,0.00
4751,3,-0.0703,-0.0774,-1.0015,0.55,-58.29,4.60
4751,4,0.0061,-0.0991,-1.0215,0.12,-58.00,3.91
4751,5,0.2217,0.1199,-1.1741,6.23,-68.26,1.66
4761,0,0.0721,0.9772,-0.2644,61.48,-4.78,0.19
4761,1,-0.1597,-0.0530,-1.0012,1.18,-58.55,3.42
4761,2,0.0000,0.0000,0.0000,0.00,0.00,0.00
4761,3,-0.0933,-0.0813,-1.0173,-0.95,-56.64,3.36
4761,4,-0.0183,-0.1040,-1.0332,-1.13,-55.94,2.66
4761,5,0.1882,0.1213,-1.1729,4.79,-66.09,0.84
4772,0,0.0717,0.9615,-0.2946,59.34,-4.09,-1.09
4772,1,-0.1816,-0.0500,-1.0083,0.60,-55.91,2.50
4772,2,0.0000,0.0000,0.0000,0.00,0.00,0.00
4772,3,-0.1111,-0.0706,-1.0359,-1.07,-54.03,2.46
4772,4,-0.0364,-0.0930,-1.0498,-0.92,-53.28,1.65
4772,5,0.1677,0.1299,-1.1890,5.24,-63.44,-0.08
4782,0,0.0669,0.9618,-0.3137,57.05,-3.08,-0.88
4782,1,-0.1963,-0.0422,-1.0300,1.31,-53.36,1.73
4782,2,0.0000,0.0000,0.0000,0.00,0.00,0.00
4782,3,-0.1321,-0.0659,-1.0547,-0.17,-51.21,1.86
4782,4,-0.0591,-0.0862,-1.0667,-0.06,-50.87,1.22
4782,5,0.1409,0.1433,-1.1958,6.12,-60.81,-0.32
4792,0,0.0603,0.9623,-0.3443,53.50,-2.68,-0.10
4792,1,-0.2188,-0.0356,-1.0347,2.26,-49.24,1.24
4792,2,0.0000,0.0000,0.0000,0.00,0.00,0.00
4792,3,-0.1602,-0.0579,-1.0696,0.75,-46.52,1.44
4792,4,-0.0845,-0.0791,-1.0852,0.99,-45.51,0.76
4792,5,0.1211,0.1492,-1.2200,7.30,-55.31,-0.56
4803,0,0.0520,0.9727,-0.3637,48.70,-1.96,1.01
4803,1,-0.2356,-0.0310,-1.0527,2.92,-43.22,0.99
4803,2,0.0000,0.0000,0.0000,0.00,0.00,0.00
4803,3,-0.1716,-0.0571,-1.0862,1.40,-40.61,1.13
4803,4,-0.0981,-0.0771,-1.1025,1.53,-39.83,0.43
4803,5,0.0957,0.1499,-1.2507,7.71,-49.44,-0.82
4813,0,0.0493,0.9945,-0.3915,41.60,-1.96,1.31
4813,1,-0.2512,-0.0237,-1.0684,3.05,-36.27,1.10
4813,2,0.0000,0.0000,0.0000,0.00,0.00,0.00
4813,3,-0.1938,-0.0576,-1.1003,1.13,-32.93,1.10
4813,4,-0.1067,-0.0754,-1.1123,1.48,-31.97,0.27
4813,5,0.0925,0.1472,-1.2400,7.34,-42.29,-0.67
4824,0,0.0437,1.0082,-0.3977,35.07,-1.86,1.00
4824,1,-0.2632,-0.0273,-1.0662,2.40,-28.64,1.10
4824,2,0.0000,0.0000,0.0000,0.00,0.00,0.00
4824,3,-0.2000,-0.0596,-1.0986,0.60,-25.24,0.53
4824,4,-0.1292,-0.0769,-1.1165,0.67,-24.31,-0.05
4824,5,0.0662,0.1497,-1.2585,6.85,-33.80,-0.47
4833,0,0.0449,1.0075,-0.4219,25.55,-2.10,0.49
4833,1,-0.2786,-0.0217,-1.0659,1.92,-20.31,1.68
4833,2,0.0000,0.0000,0.0000,0.00,0.00,0.00
4833,3,-0.2144,-0.0476,-1.0979,-0.03,-16.84,0.92
4833,4,-0.1443,-0.0679,-1.1201,0.47,-15.57,0.32
4833,5,0.0503,0.1638,-1.2480,6.67,-25.08,0.29
4844,0,0.0373,0.9884,-0.4332,17.94,-2.61,0.68
4844,1,-0.2837,-0.0144,-1.0620,2.40,-11.83,2.23
4844,2,0.0000,0.0000,0.0000,0.00,0.00,0.00
4844,3,-0.2173,-0.0447,-1.0950,0.26,-8.79,1.28
4844,4,-0.1443,-0.0640,-1.1182,0.50,-7.57,0.43
4844,5,0.0562,0.1572,-1.2493,6.82,-17.15,0.67
4855,0,0.0384,0.9922,-0.4340,8.80,-3.13,0.89
4855,1,-0.2852,-0.0225,-1.0593,2.27,-3.92,2.79
4855,2,0.0000,0.0000,0.0000,0.00,0.00,0.00
4855,3,-0.2175,-0.0540,-1.0886,-0.11,-0.95,1.77
4855,4,-0.1475,-0.0696,-1.1099,0.47,0.17,0.84
4855,5,0.0486,0.1545,-1.2527,6.69,-9.77,1.11
4865,0,0.0411,0.9889,-0.4383,2.07,-3.62,0.77
4865,1,-0.2908,-0.0220,-1.0598,2.12,3.16,3.40
4865,2,0.0000,0.0000,0.0000,0.00,0.00,0.00
4865,3,-0.2205,-0.0500,-1.0906,-0.02,6.20,2.21
4865,4,-0.1489,-0.0708,-1.1099,0.49,7.25,1.18
4865,5,0.0444,0.1567,-1.2478,6.85,-2.89,2.14
4875,0,0.0388,0.9800,-0.4433,-4.45,-4.34,1.23
4875,1,-0.2957,-0.0220,-1.0535,2.50,10.24,4.35
4875,2,0.0000,0.0000,0.0000,0.00,0.00,0.00
4875,3,-0.2229,-0.0420,-1.0928,0.34,13.30,2.89
4875,4,-0.1550,-0.0684,-1.1067,1.05,14.32,1.95
4875,5,0.0435,0.1616,-1.2441,7.04,4.24,3.10
4885,0,0.0365,0.9726,-0.4407,-12.58,-5.02,1.92
4885,1,-0.2878,-0.0193,-1.0483,3.24,17.28,5.07
4885,2,0.0000,0.0000,0.0000,0.00,0.00,0.00
4885,3,-0.2161,-0.0432,-1.0833,1.16,20.55,3.47
4885,4,-0.1375,-0.0632,-1.1023,1.51,21.65,2.58
4885,5,0.0566,0.1560,-1.2271,8.06,11.39,3.89
4896,0,0.0378,0.9628,-0.4189,-18.85,-5.22,3.33
4896,1,-0.2720,-0.0229,-1.0481,4.53,23.73,5.22
4896,2,0.0000,0.0000,0.0000,0.00,0.00,0.00
4896,3,-0.1956,-0.0479,-1.0857,2.26,26.31,3.73
4896,4,-0.1206,-0.0669,-1.0935,2.85,27.08,2.61
4896,5,0.0798,0.1572,-1.2207,9.33,16.52,4.12
4906,0,0.0433,0.9677,-0.3997,-24.80,-4.97,4.38
4906,1,-0.2537,-0.0273,-1.0488,5.53,28.05,5.47
4906,2,0.0000,0.0000,0.0000,0.00,0.00,0.00
4906,3,-0.1738,-0.0481,-1.0767,3.21,30.40,3.42
4906,4,-0.0969,-0.0698,-1.0908,3.86,30.92,2.55
4906,5,0.1111,0.1545,-1.2305,10.35,20.15,4.05
4916,0,0.0432,0.9881,-0.3767,-27.77,-4.86,4.97
4916,1,-0.2256,-0.0242,-1.0522,5.62,30.79,5.27
4916,2,0.0000,0.0000,0.0000,0.00,0.00,0.00
4916,3,-0.1426,-0.0583,-1.0740,3.02,32.87,3.45
4916,4,-0.0608,-0.0798,-1.0928,3.68,33.37,2.27
4916,5,0.1484,0.1470,-1.2361,9.85,22.00,4.17
4926,0,0.0497,1.0016,-0.3495,-29.65,-4.57,4.67
4926,1,-0.2024,-0.0305,-1.0547,5.50,31.74,5.04
4926,2,0.0000,0.0000,0.0000,0.00,0.00,0.00
4926,3,-0.1174,-0.0610,-1.0703,2.72,33.57,2.70
4926,4,-0.0388,-0.0857,-1.0867,3.39,33.65,1.85
4926,5,0.1685,0.1406,-1.2288,9.74,22.81,3.44
4937,0,0.0534,1.0083,-0.3312,-29.96,-4.39,4.24
4937,1,-0.1936,-0.0295,-1.0574,5.02,31.82,4.44
4937,2,0.0000,0.0000,0.0000,0.00,0.00,0.00
4937,3,-0.1077,-0.0649,-1.0732,2.27,33.08,2.27
4937,4,-0.0271,-0.0837,-1.0881,2.87,33.19,1.24
4937,5,0.1787,0.1372,-1.2354,8.99,21.86,2.82
4947,0,0.0545,1.0208,-0.3227,-29.35,-3.94,3.43
4947,1,-0.1858,-0.0356,-1.0649,4.20,30.81,4.11
4947,2,0.0000,0.0000,0.0000,0.00,0.00,0.00
4947,3,-0.0928,-0.0664,-1.0789,1.76,31.98,1.91
4947,4,-0.0151,-0.0879,-1.0928,2.35,32.11,0.90
4947,5,0.1882,0.1396,-1.2410,8.50,20.82,2.40
4958,0,0.0575,1.0174,-0.3223,-28.17,-3.85,3.01
4958,1,-0.1848,-0.0344,-1.0698,4.27,29.54,4.17
4958,2,0.0000,0.0000,0.0000,0.00,0.00,0.00
4958,3,-0.0876,-0.0625,-1.0935,1.79,30.89,1.97
4958,4,-0.0110,-0.0815,-1.1030,2.50,30.78,1.01
4958,5,0.1831,0.1428,-1.2354,8.67,19.91,2.41
4967,0,0.0550,1.0213,-0.3218,-26.92,-3.90,3.33
4967,1,-0.1860,-0.0364,-1.0767,4.24,28.44,3.82
4967,2,0.0000,0.0000,0.0000,0.00,0.00,0.00
4967,3,-0.0930,-0.0649,-1.1018,1.82,29.91,1.88
4967,4,-0.0183,-0.0847,-1.1106,2.60,30.15,0.99
4967,5,0.1807,0.1394,-1.2502,8.89,19.04,2.58
4978,0,0.0565,1.0232,-0.3298,-26.41,-3.74,3.55
4978,1,-0.1960,-0.0359,-1.0872,4.96,28.64,3.73
4978,2,0.0000,0.0000,0.0000,0.00,0.00,0.00
4978,3,-0.1145,-0.0603,-1.1165,2.69,30.70,1.77
4978,4,-0.0400,-0.0806,-1.1289,3.65,31.48,0.70
4978,5,0.1616,0.1426,-1.2664,10.31,20.87,2.08
4988,0,0.0543,1.0237,-0.3351,-28.84,-3.10,4.43
4988,1,-0.2017,-0.0354,-1.0957,5.98,32.82,3.18
4988,2,0.0000,0.0000,0.0000,0.00,0.00,0.00
4988,3,-0.1448,-0.0603,-1.1328,4.11,35.97,0.61
4988,4,-0.0596,-0.0823,-1.1406,4.93,36.72,-0.38
4988,5,0.1477,0.1460,-1.2678,11.42,26.70,1.27
4999,0,0.0544,1.0300,-0.3311,-34.18,-1.28,5.76
4999,1,-0.2095,-0.0427,-1.1016,7.34,39.88,1.11
4999,2,0.0000,0.0000,0.0000,0.00,0.00,0.00
4999,3,-0.1614,-0.0669,-1.1348,5.60,43.13,-1.82
4999,4,-0.0693,-0.0928,-1.1399,6.81,44.31,-2.84
4999,5,0.1423,0.1355,-1.2620,13.01,34.47,-1.24
5008,0,0.0636,1.0220,-0.3250,-43.45,1.38,6.86
5008,1,-0.2278,-0.0525,-1.1091,9.42,50.27,-2.53
5008,2,0.0000,0.0000,0.0000,0.00,0.00,0.00
5008,3,-0.2178,-0.0808,-1.1599,8.06,54.49,-5.94
5008,4,-0.1174,-0.1023,-1.1602,9.82,56.46,-7.45
5008,5,0.1042,0.1245,-1.2717,16.02,47.34,-5.57
5019,0,0.0725,1.0182,-0.3268,-56.05,6.11,9.35
5019,1,-0.2568,-0.0581,-1.1233,12.06,67.31,-8.44
5019,2,0.0000,0.0000,0.0000,0.00,0.00,0.00
5019,3,-0.2703,-0.0867,-1.1809,11.04,73.28,-12.69
5019,4,-0.1558,-0.1052,-1.1846,13.42,76.15,-14.17
5019,5,0.0862,0.1189,-1.3025,19.54,67.82,-11.53
5030,0,0.0776,1.0320,-0.3317,-79.22,13.90,10.83
5030,1,-0.2517,-0.0601,-1.1304,14.50,90.47,-15.42
5030,2,0.0000,0.0000,0.0000,0.00,0.00,0.00
5030,3,-0.2747,-0.0840,-1.1829,13.73,96.64,-19.98
5030,4,-0.1589,-0.1057,-1.1885,16.85,99.98,-21.40
5030,5,0.0862,0.1238,-1.3047,22.40,92.50,-17.79
5040,0,0.0738,1.0418,-0.3279,-101.39,19.92,12.37
5040,1,-0.2468,-0.0564,-1.1226,16.34,114.79,-21.68
5040,2,0.0000,0.0000,0.0000,0.00,0.00,0.00
5040,3,-0.2539,-0.0837,-1.1606,15.69,120.92,-26.73
5040,4,-0.1409,-0.1060,-1.1711,19.15,123.48,-27.85
5040,5,0.0901,0.1196,-1.3083,24.70,116.06,-23.47
5050,0,0.0765,1.0530,-0.3328,-128.05,26.37,12.81
5050,1,-0.2214,-0.0483,-1.1270,17.07,139.15,-26.81
5050,2,0.0000,0.0000,0.0000,0.00,0.00,0.00
5050,3,-0.2222,-0.0725,-1.1565,16.85,144.56,-32.18
5050,4,-0.1116,-0.0947,-1.1680,20.76,147.71,-33.40
5050,5,0.1279,0.1306,-1.2964,26.29,139.82,-28.08
5061,0,0.0683,1.0529,-0.3012,-148.85,30.61,13.46
5061,1,-0.1770,-0.0513,-1.1216,18.35,161.27,-31.33
5061,2,0.0000,0.0000,0.0000,0.00,0.00,0.00
5061,3,-0.1682,-0.0764,-1.1313,18.09,166.18,-37.33
5061,4,-0.0542,-0.0962,-1.1350,22.70,167.69,-38.55
5061,5,0.1836,0.1194,-1.2573,28.03,159.11,-32.29
5071,0,0.0792,1.0480,-0.2522,-170.31,35.84,13.98
5071,1,-0.1194,-0.0615,-1.1006,19.31,179.86,-35.73
5071,2,0.0000,0.0000,0.0000,0.00,0.00,0.00
5071,3,-0.1201,-0.0898,-1.1045,19.16,185.15,-42.32
5071,4,-0.0122,-0.1111,-1.1045,24.14,187.11,-43.74
5071,5,0.2300,0.1167,-1.2371,29.04,178.20,-36.69
5082,0,0.0850,1.0431,-0.1921,-187.27,39.90,13.72
5082,1,-0.0840,-0.0615,-1.0674,19.15,196.87,-40.92
5082,2,0.0000,0.0000,0.0000,0.00,0.00,0.00
5082,3,-0.0874,-0.0857,-1.0527,19.10,201.42,-48.18
5082,4,0.0361,-0.1108,-1.0662,24.49,202.95,-49.74
5082,5,0.2935,0.1072,-1.2195,29.30,195.10,-42.35
5092,0,0.0859,1.0488,-0.1337,-205.47,46.36,12.49
5092,1,-0.0393,-0.0642,-1.0439,18.24,212.63,-46.60
5092,2,0.0000,0.0000,0.0000,0.00,0.00,0.00
5092,3,-0.0317,-0.0908,-1.0229,18.26,216.37,-54.49
5092,4,0.0793,-0.1157,-1.0364,24.24,218.11,-56.21
5092,5,0.3291,0.1030,-1.1980,28.64,210.08,-48.11
5103,0,0.0927,1.0368,-0.0888,-218.85,51.08,10.31
5103,1,0.0010,-0.0625,-1.0205,17.22,226.08,-51.98
5103,2,0.0000,0.0000,0.0000,0.00,0.00,0.00
5103,3,0.0251,-0.0820,-0.9895,17.77,229.11,-59.79
5103,4,0.1252,-0.1079,-1.0063,23.66,230.37,-61.22
5103,5,0.3655,0.1111,-1.1702,28.32,222.00,-52.31
5113,0,0.0897,1.0399,-0.0700,-232.09,55.35,9.05
5113,1,0.0481,-0.0652,-1.0208,16.02,236.78,-55.40
5113,2,0.0000,0.0000,0.0000,0.00,0.00,0.00
5113,3,0.1116,-0.0771,-0.9631,16.41,238.23,-63.25
5113,4,0.2083,-0.1084,-0.9807,22.96,238.31,-64.69
5113,5,0.4392,0.1104,-1.1514,27.21,228.78,-55.51
5124,0,0.0888,1.0393,-0.0193,-237.82,57.28,7.39
5124,1,0.1133,-0.0530,-1.0010,14.43,241.80,-56.93
5124,2,0.0000,0.0000,0.0000,0.00,0.00,0.00
5124,3,0.2039,-0.0618,-0.9395,15.21,241.68,-64.43
5124,4,0.2703,-0.0798,-0.9644,21.97,241.98,-65.27
5124,5,0.4961,0.1260,-1.1272,26.18,232.87,-55.19
5134,0,0.0777,1.0232,0.0185,-241.24,57.31,6.63
5134,1,0.1621,-0.0437,-0.9661,14.66,243.28,-56.09
5134,2,0.0000,0.0000,0.0000,0.00,0.00,0.00
5134,3,0.2710,-0.0479,-0.9006,15.83,242.12,-63.16
5134,4,0.3257,-0.0723,-0.9016,22.55,241.40,-64.03
5134,5,0.5266,0.1394,-1.0615,26.93,231.36,-53.47
5144,0,0.0712,0.9653,0.0460,-239.87,55.69,7.91
5144,1,0.2183,-0.0391,-0.9497,15.94,242.35,-53.07
5144,2,0.0000,0.0000,0.0000,0.00,0.00,0.00
5144,3,0.3208,-0.0427,-0.8821,16.52,241.42,-60.00
5144,4,0.3718,-0.0667,-0.8750,22.99,240.40,-60.46
5144,5,0.5637,0.1472,-1.0417,27.27,229.60,-50.41
5155,0,0.0632,0.9610,0.0656,-238.14,51.82,9.36
5155,1,0.2454,-0.0237,-0.9436,16.35,240.18,-48.60
5155,2,0.0000,0.0000,0.0000,0.00,0.00,0.00
5155,3,0.3359,-0.0188,-0.8809,16.93,240.50,-54.47
5155,4,0.3479,-0.0281,-0.8533,23.15,239.45,-54.32
5155,5,0.4890,0.1948,-0.9976,28.23,228.99,-43.28
5166,0,0.0307,0.8856,-0.0260,-238.75,45.74,12.13
5166,1,0.1597,0.0862,-0.8521,22.27,247.42,-39.53
5166,2,0.0000,0.0000,0.0000,0.00,0.00,0.00
5166,3,0.1897,0.1067,-0.8584,24.29,251.05,-45.24
5166,4,0.2212,0.0808,-0.8010,30.89,252.12,-45.24
5166,5,0.4175,0.2798,-0.8823,37.68,243.01,-34.47
5175,0,-0.0267,0.6982,0.0331,-251.77,40.25,25.31
5175,1,0.2073,-0.0249,-0.8403,32.84,262.37,-36.58
5175,2,0.0000,0.0000,0.0000,0.00,0.00,0.00
5175,3,0.2156,-0.0457,-0.8550,33.74,266.87,-43.89
5175,4,0.3079,-0.0967,-0.8179,40.11,268.76,-44.66
5175,5,0.5610,0.1038,-0.9512,45.77,260.08,-34.56
5186,0,0.1009,0.8283,0.2316,-271.11,43.63,31.11
5186,1,0.3008,-0.1375,-0.8977,37.11,282.56,-41.98
5186,2,0.0000,0.0000,0.0000,0.00,0.00,0.00
5186,3,0.2546,-0.1641,-0.8403,36.58,287.60,-51.10
5186,4,0.3828,-0.1899,-0.8291,42.70,289.42,-52.47
5186,5,0.6738,0.0103,-1.0190,47.34,281.04,-42.40
5197,0,0.1857,0.9867,0.3229,-289.64,52.60,29.65
5197,1,0.3401,-0.1606,-0.8906,34.55,302.12,-51.05
5197,2,0.0000,0.0000,0.0000,0.00,0.00,0.00
5197,3,0.2913,-0.1760,-0.7798,33.97,306.05,-61.07
5197,4,0.4133,-0.1938,-0.7854,40.37,308.21,-62.63
5197,5,0.6919,0.0193,-0.9766,44.99,299.40,-51.42
5208,0,0.1782,0.9697,0.3420,-310.20,59.52,25.29
5208,1,0.3801,-0.1074,-0.8230,30.76,320.26,-58.31
5208,2,0.0000,0.0000,0.0000,0.00,0.00,0.00
5208,3,0.3574,-0.1028,-0.6948,30.85,323.98,-67.97
5208,4,0.4399,-0.1206,-0.7007,38.02,325.15,-69.31
5208,5,0.6917,0.0901,-0.8770,42.11,316.78,-56.66
5217,0,0.1133,0.8746,0.3181,-325.69,63.30,21.33
5217,1,0.4165,-0.0688,-0.7446,27.82,335.76,-59.95
5217,2,0.0000,0.0000,0.0000,0.00,0.00,0.00
5217,3,0.4324,-0.0718,-0.6152,28.05,338.72,-69.04
5217,4,0.4856,-0.0964,-0.6162,35.37,339.62,-69.71
5217,5,0.7056,0.1033,-0.8120,39.66,330.41,-56.00
5228,0,0.1019,0.8104,0.3249,-341.13,61.58,19.46
5228,1,0.4783,-0.0825,-0.6948,25.45,348.03,-57.02
5228,2,0.0000,0.0000,0.0000,0.00,0.00,0.00
5228,3,0.5156,-0.0874,-0.5481,24.96,350.84,-66.15
5228,4,0.5498,-0.1213,-0.5583,31.94,351.48,-66.89
5228,5,0.7793,0.0696,-0.7534,36.08,341.66,-52.63
5239,0,0.1355,0.7849,0.3878,-351.00,58.01,16.15
5239,1,0.6296,-0.1465,-0.5254,20.27,331.66,-58.06
5239,2,0.0000,0.0000,0.0000,0.00,0.00,0.00
5239,3,1.0435,-0.2266,-0.1331,18.78,305.48,-71.48
5239,4,1.1562,-0.2820,-0.2417,24.46,292.03,-73.36
5239,5,1.3657,-0.1003,-0.6321,26.47,277.68,-61.68
5250,0,0.2624,0.8954,0.8029,-288.31,63.40,3.99
5250,1,0.9338,-0.1731,-0.6292,4.79,295.05,-59.16
5250,2,0.0000,0.0000,0.0000,0.00,0.00,0.00
5250,3,1.1353,-0.1829,-0.2502,2.63,284.21,-68.29
5250,4,1.1870,-0.1953,-0.2219,7.77,271.65,-69.54
5250,5,1.4272,0.0171,-0.4851,10.37,248.46,-57.33
5259,0,0.1618,0.7863,0.7930,-259.14,53.34,-11.34
5259,1,1.0371,-0.0330,-0.5071,-6.63,231.22,-50.93
5259,2,0.0000,0.0000,0.0000,0.00,0.00,0.00
5259,3,1.2778,-0.0039,-0.3171,-7.53,223.57,-55.71
5259,4,1.2141,-0.0134,-0.2998,-2.38,219.45,-56.60
5259,5,1.3472,0.2046,-0.4946,1.45,203.45,-44.67
5270,0,0.0082,0.6705,0.7580,-205.76,38.96,-15.35
5270,1,1.0088,0.0845,-0.3860,-9.76,184.12,-32.76
5270,2,0.0000,0.0000,0.0000,0.00,0.00,0.00
5270,3,1.3105,0.1218,-0.2339,-10.34,173.94,-36.49
5270,4,1.2258,0.0957,-0.1777,-6.17,167.47,-36.35
5270,5,1.3408,0.2852,-0.3596,-1.02,150.61,-26.44
5281,0,-0.0704,0.4690,0.7820,-159.16,18.74,-12.13
5281,1,1.0386,0.0735,-0.3340,-7.85,138.55,-14.58
5281,2,0.0000,0.0000,0.0000,0.00,0.00,0.00
5281,3,1.2976,0.0742,-0.2051,-9.22,129.53,-17.15
5281,4,1.2183,0.0437,-0.1375,-6.43,124.46,-17.24
5281,5,1.3469,0.2158,-0.3213,-0.44,108.75,-9.19
5291,0,-0.0109,0.4226,0.8592,-112.67,4.80,-7.93
5291,1,1.0513,-0.0024,-0.3267,-4.53,99.83,-0.44
5291,2,0.0000,0.0000,0.0000,0.00,0.00,0.00
5291,3,1.2178,0.0027,-0.2576,-6.08,94.47,-3.51
5291,4,1.1899,-0.0193,-0.1777,-4.38,90.37,-4.27
5291,5,1.3704,0.1680,-0.3311,2.78,76.02,0.89
5301,0,0.0455,0.4277,0.9290,-83.35,-3.22,-1.33
5301,1,1.0017,-0.0361,-0.3848,1.24,73.34,5.21
5301,2,0.0000,0.0000,0.0000,0.00,0.00,0.00
5301,3,1.1182,-0.0291,-0.3167,-0.20,68.67,1.92
5301,4,1.1116,-0.0435,-0.2388,1.07,65.92,1.24
5301,5,1.2917,0.1411,-0.4011,8.35,53.77,5.11
5311,0,0.0653,0.4592,0.9032,-60.17,-5.62,4.34
5311,1,0.9336,-0.0498,-0.4160,7.39,56.70,6.55
5311,2,0.0000,0.0000,0.0000,0.00,0.00,0.00
5311,3,0.9558,-0.0283,-0.4163,6.14,57.39,4.60
5311,4,0.9729,-0.0474,-0.3145,7.95,57.47,3.79
5311,5,1.1709,0.1504,-0.4478,15.34,45.66,6.75
5322,0,0.0598,0.4503,0.8164,-53.57,-5.74,11.02
5322,1,0.8467,-0.0481,-0.4580,15.47,55.22,6.64
5322,2,0.0000,0.0000,0.0000,0.00,0.00,0.00
5322,3,0.8406,-0.0347,-0.4460,14.55,58.17,4.66
5322,4,0.8708,-0.0605,-0.3711,16.09,58.82,4.03
5322,5,1.1179,0.1321,-0.4741,23.59,48.29,6.52
5333,0,0.0731,0.4787,0.7868,-58.85,-2.77,19.79
5333,1,0.7883,-0.0706,-0.4780,22.72,65.34,3.95
5333,2,0.0000,0.0000,0.0000,0.00,0.00,0.00
5333,3,0.7734,-0.0557,-0.4563,21.15,68.69,1.33
5333,4,0.8220,-0.0759,-0.3901,22.78,69.91,0.99
5333,5,1.0867,0.1160,-0.5337,29.73,59.19,3.18
5342,0,0.0842,0.5313,0.7669,-68.65,1.70,23.99
5342,1,0.7712,-0.0640,-0.5212,25.68,76.79,-0.81
5342,2,0.0000,0.0000,0.0000,0.00,0.00,0.00
5342,3,0.7278,-0.0774,-0.4846,23.30,82.31,-3.79
5342,4,0.7917,-0.0967,-0.4326,24.61,85.07,-4.53
5342,5,1.0615,0.0959,-0.6206,30.56,75.97,-2.12
5353,0,0.0871,0.6353,0.7531,-83.67,7.63,23.27
5353,1,0.7646,-0.0662,-0.5298,24.15,92.75,-6.96
5353,2,0.0000,0.0000,0.0000,0.00,0.00,0.00
5353,3,0.7417,-0.0862,-0.4480,21.36,96.02,-11.02
5353,4,0.8218,-0.1118,-0.4194,22.90,96.70,-12.26
5353,5,1.1133,0.0869,-0.5994,28.56,86.31,-9.28
5363,0,0.0920,0.6695,0.7873,-93.76,13.63,19.28
5363,1,0.8008,-0.0728,-0.5027,19.68,94.69,-14.63
5363,2,0.0000,0.0000,0.0000,0.00,0.00,0.00
5363,3,0.8069,-0.0947,-0.4065,17.27,96.81,-19.07
5363,4,0.8799,-0.1155,-0.3923,19.63,96.76,-20.21
5363,5,1.1543,0.0833,-0.5891,24.87,86.26,-17.13
5374,0,0.0975,0.6444,0.8139,-94.13,20.21,13.56
5374,1,0.8374,-0.0740,-0.4688,16.60,95.98,-20.55
5374,2,0.0000,0.0000,0.0000,0.00,0.00,0.00
5374,3,0.8586,-0.0740,-0.3669,15.13,96.46,-24.82
5374,4,0.9233,-0.0908,-0.3250,18.06,95.31,-26.15
5374,5,1.1946,0.1021,-0.4988,22.85,83.94,-22.56
5384,0,0.0822,0.5813,0.8441,-90.77,24.45,11.06
5384,1,0.8752,-0.0388,-0.4170,14.41,90.31,-25.16
5384,2,0.0000,0.0000,0.0000,0.00,0.00,0.00
5384,3,0.9368,-0.0525,-0.3152,13.18,89.48,-28.81
5384,4,0.9771,-0.0747,-0.2849,15.86,88.26,-29.40
5384,5,1.2446,0.1172,-0.4636,20.49,76.85,-26.00
5394,0,0.0638,0.5750,0.8625,-83.65,26.60,7.28
5394,1,0.9377,-0.0293,-0.3970,10.67,80.90,-26.20
5394,2,0.0000,0.0000,0.0000,0.00,0.00,0.00
5394,3,1.0156,-0.0337,-0.2947,9.69,80.21,-28.87
5394,4,1.0286,-0.0544,-0.2690,12.21,79.15,-29.27
5394,5,1.2625,0.1392,-0.4580,17.05,67.51,-25.50
5405,0,0.0481,0.5571,0.8657,-73.61,24.53,4.64
5405,1,0.9807,-0.0051,-0.3953,8.31,71.68,-23.08
5405,2,0.0000,0.0000,0.0000,0.00,0.00,0.00
5405,3,1.0864,-0.0037,-0.2925,7.16,70.03,-25.42
5405,4,1.0957,-0.0217,-0.2546,9.95,68.52,-25.68
5405,5,1.3035,0.1736,-0.4385,15.04,56.84,-21.92
5416,0,0.0249,0.5355,0.8993,-63.67,20.86,3.41
5416,1,1.0249,0.0156,-0.3916,7.36,60.38,-18.35
5416,2,0.0000,0.0000,0.0000,0.00,0.00,0.00
5416,3,1.1140,0.0198,-0.2856,5.74,58.81,-19.74
5416,4,1.0889,-0.0049,-0.2429,7.82,57.76,-19.86
5416,5,1.2861,0.1902,-0.4368,12.70,46.00,-16.41
5425,0,-0.0002,0.5377,0.8689,-51.69,14.19,2.28
5425,1,0.9829,0.0364,-0.3613,3.54,50.15,-12.29
5425,2,0.0000,0.0000,0.0000,0.00,0.00,0.00
5425,3,1.0532,0.0295,-0.2502,0.79,51.15,-13.21
5425,4,1.0168,0.0037,-0.2529,1.71,51.48,-13.48
5425,5,1.2053,0.2031,-0.4609,6.79,41.07,-10.14
5436,0,-0.0156,0.5458,0.7915,-48.95,7.45,-1.77
5436,1,0.9426,0.0103,-0.4236,-0.82,52.61,-4.47
5436,2,0.0000,0.0000,0.0000,0.00,0.00,0.00
5436,3,0.9819,-0.0144,-0.3501,-3.57,56.64,-6.02
5436,4,0.9424,-0.0447,-0.3425,-2.55,58.99,-6.50
5436,5,1.1301,0.1450,-0.5254,3.53,49.73,-2.67
5446,0,0.0501,0.5613,0.7465,-57.24,-1.10,-3.43
5446,1,0.9001,-0.0259,-0.4709,-2.81,66.43,2.15
5446,2,0.0000,0.0000,0.0000,0.00,0.00,0.00
5446,3,0.9060,-0.0347,-0.3992,-6.08,71.01,-1.01
