# sensor 0 OK
# sensor 1 OK
# sensor 2 OK
# sensor 3 OK
# sensor 4 OK
# sensor 5 OK
# sensor 0 = onboard LSM6DS3, 1..5 = finger MPU-6050
# units: accel g, gyro deg/s
millis,sensor_id,ax,ay,az,gx,gy,gz
# calib_start hold_still_ms=10000
1000,0,-0.0051,-0.0215,0.9994,-0.84,-1.89,3.85
1000,1,1.0012,0.0061,0.1277,6.14,2.78,1.85
1000,2,0.9895,-0.0044,0.2163,5.47,2.52,0.08
1000,3,0.9946,0.0264,0.2019,-6.27,-7.40,-9.15
1000,4,0.9795,0.0073,0.2568,0.00,0.00,0.00
1000,5,1.2312,0.1790,0.1042,0.00,0.00,0.00
1010,0,-0.0045,-0.0198,0.9999,-0.86,-1.80,5.46
1010,1,1.0029,0.0120,0.1328,7.21,2.85,2.17
1010,2,0.9922,-0.0073,0.2173,6.49,2.56,0.44
1010,3,0.9941,0.0283,0.2007,5.33,4.17,1.05
1010,4,0.9807,0.0115,0.2520,9.21,2.46,-1.73
1010,5,1.2324,0.1890,0.0991,35.91,-30.63,-46.00
1020,0,-0.0082,-0.0235,1.0021,-0.88,-1.78,6.72
1020,1,1.0022,0.0137,0.1187,9.45,2.76,2.43
1020,2,0.9949,0.0010,0.2107,8.87,2.98,1.02
1020,3,0.9910,0.0352,0.1868,7.89,4.44,1.53
1020,4,0.9785,0.0178,0.2419,8.72,4.73,1.45
1020,5,1.2341,0.1831,0.0999,15.18,-6.26,1.71
1031,0,-0.0046,-0.0211,1.0030,-1.23,-1.87,9.17
1031,1,0.9951,-0.0017,0.1509,10.50,2.66,2.53
1031,2,0.9868,-0.0188,0.2251,9.45,2.56,1.15
1031,3,0.9875,0.0083,0.2278,8.38,4.21,1.65
1031,4,0.9666,-0.0037,0.2607,8.81,4.43,1.22
1031,5,1.2319,0.1685,0.1038,15.10,-6.40,1.89
1041,0,0.0026,-0.0211,1.0022,-1.07,-1.86,9.22
1041,1,0.9932,-0.0059,0.1536,10.49,3.04,2.64
1041,2,0.9956,-0.0183,0.2202,9.34,2.72,1.08
1041,3,0.9895,0.0103,0.2297,8.02,4.08,1.63
1041,4,0.9741,-0.0115,0.2612,8.53,4.44,1.16
1041,5,1.2329,0.1575,0.0999,14.75,-6.35,1.65
1051,0,0.0110,-0.0030,1.0059,-0.94,-1.84,7.82
1051,1,0.9949,-0.0183,0.1670,8.44,2.56,2.14
1051,2,0.9932,-0.0298,0.2190,7.18,2.26,0.31
1051,3,0.9851,-0.0120,0.2676,5.60,3.98,1.01
1051,4,0.9692,-0.0254,0.2837,5.66,4.24,0.24
1051,5,1.2273,0.1460,0.1050,11.34,-6.75,0.64
1062,0,0.0149,-0.0009,1.0037,-0.52,-1.75,5.13
1062,1,1.0010,-0.0054,0.1648,5.89,2.63,1.82
1062,2,0.9895,-0.0190,0.2231,4.67,2.46,0.17
1062,3,0.9863,0.0015,0.2410,3.44,4.12,0.37
1062,4,0.9741,-0.0098,0.2664,3.85,4.15,-0.24
1062,5,1.2334,0.1621,0.0972,9.91,-6.44,0.44
1073,0,0.0054,-0.0083,1.0042,-0.49,-1.73,3.36
1073,1,1.0034,0.0005,0.1541,4.82,2.70,1.68
1073,2,0.9922,-0.0134,0.2197,4.08,2.44,-0.35
1073,3,0.9907,0.0122,0.2153,2.87,4.12,0.37
1073,4,0.9790,0.0012,0.2485,3.37,4.44,-0.46
1073,5,1.2366,0.1763,0.0916,9.66,-6.29,0.24
1083,0,-0.0010,-0.0094,1.0039,-0.79,-1.77,3.62
1083,1,1.0010,-0.0017,0.1318,5.48,2.67,1.79
1083,2,0.9941,-0.0156,0.2087,4.69,2.64,-0.18
1083,3,0.9912,0.0129,0.1968,3.34,4.24,0.64
1083,4,0.9817,-0.0068,0.2393,4.03,4.50,-0.08
1083,5,1.2327,0.1682,0.0864,10.08,-6.11,0.49
1093,0,0.0067,0.0010,1.0035,-0.98,-1.87,3.92
1093,1,1.0012,-0.0098,0.1387,5.37,2.44,1.68
1093,2,0.9988,-0.0215,0.2065,4.60,2.29,-0.18
1093,3,0.9939,0.0110,0.2087,3.28,4.09,0.44
1093,4,0.9734,-0.0032,0.2476,3.94,4.08,-0.24
1093,5,1.2317,0.1626,0.0837,9.98,-6.73,0.26
1104,0,0.0050,0.0007,1.0032,-0.51,-1.77,3.69
1104,1,0.9998,0.0020,0.1216,5.37,2.56,1.66
1104,2,0.9980,-0.0168,0.1985,4.61,2.27,-0.18
1104,3,0.9990,0.0117,0.1875,3.24,3.98,0.41
1104,4,0.9805,-0.0010,0.2363,3.86,4.09,-0.21
1104,5,1.2358,0.1682,0.0710,10.08,-6.58,0.44
1114,0,0.0037,0.0156,1.0031,-0.37,-1.82,3.73
1114,1,1.0000,-0.0127,0.1245,5.10,2.52,1.66
1114,2,0.9951,-0.0244,0.1985,4.03,1.91,-0.24
1114,3,0.9939,-0.0039,0.2119,2.84,4.09,0.21
1114,4,0.9790,-0.0149,0.2537,3.02,4.12,-0.60
1114,5,1.2361,0.1543,0.0806,8.92,-6.84,-0.05
1125,0,0.0126,0.0129,1.0065,-0.09,-1.80,2.64
1125,1,0.9983,-0.0088,0.1545,3.45,2.31,1.34
1125,2,0.9949,-0.0269,0.2109,2.40,2.05,-0.67
1125,3,0.9902,-0.0005,0.2368,0.89,3.83,-0.20
1125,4,0.9763,-0.0154,0.2649,1.42,3.97,-1.01
1125,5,1.2324,0.1560,0.0913,7.25,-7.04,-0.44
1135,0,0.0088,-0.0009,1.0054,-0.19,-1.68,0.74
1135,1,0.9995,-0.0042,0.1399,2.12,1.74,1.05
1135,2,1.0037,-0.0222,0.1958,1.42,1.62,-1.02
1135,3,0.9973,0.0029,0.1982,0.08,3.30,-0.40
1135,4,0.9780,-0.0098,0.2354,0.56,3.66,-1.28
1135,5,1.2351,0.1604,0.0586,6.34,-6.92,-0.96
1145,0,0.0122,0.0289,1.0017,-0.19,-1.64,-0.37
1145,1,0.9998,-0.0144,0.1228,0.29,2.41,0.96
1145,2,0.9958,-0.0234,0.1870,-0.52,2.56,-1.27
1145,3,0.9883,0.0007,0.2078,-2.05,3.89,-0.50
1145,4,0.9783,-0.0181,0.2341,-1.77,4.15,-1.85
1145,5,1.2527,0.1497,0.0654,4.18,-6.63,-1.24
1156,0,0.0135,0.0384,1.0108,-0.17,-1.75,-2.87
1156,1,1.0029,-0.0151,0.1196,-1.65,2.00,0.61
1156,2,0.9907,-0.0251,0.1829,-2.29,2.23,-2.02
1156,3,0.9871,-0.0029,0.2029,-4.00,3.63,-1.27
1156,4,0.9690,-0.0156,0.2466,-3.47,3.74,-2.43
1156,5,1.2202,0.1570,0.0703,2.67,-6.53,-1.51
1166,0,0.0145,0.0174,0.9948,-0.51,-1.89,-4.11
1166,1,1.0063,-0.0051,0.1365,-2.69,2.49,0.70
1166,2,0.9993,-0.0156,0.2083,-3.45,2.41,-2.03
1166,3,0.9922,0.0100,0.2239,-4.81,3.53,-1.40
1166,4,0.9858,-0.0137,0.2520,-4.21,3.53,-2.64
1166,5,1.2366,0.1628,0.0908,1.88,-6.93,-1.94
1177,0,0.0077,0.0072,1.0059,0.17,-1.58,-5.16
1177,1,1.0007,-0.0056,0.1399,-3.53,2.15,0.40
1177,2,0.9927,-0.0261,0.2017,-4.26,2.00,-2.55
1177,3,0.9912,0.0037,0.2231,-6.00,3.48,-1.62
1177,4,0.9749,-0.0156,0.2568,-5.48,3.54,-2.95
1177,5,1.2302,0.1604,0.0835,0.50,-6.61,-2.02
1187,0,0.0072,0.0059,1.0045,-0.02,-1.70,-6.14
1187,1,0.9973,-0.0054,0.1404,-4.56,1.77,0.12
1187,2,0.9944,-0.0134,0.2124,-5.16,1.73,-2.78
1187,3,0.9963,0.0176,0.2153,-6.72,3.40,-1.88
1187,4,0.9758,-0.0095,0.2620,-5.97,3.45,-3.24
1187,5,1.2341,0.1592,0.0823,-0.14,-7.28,-2.63
1198,0,0.0043,0.0301,1.0021,0.12,-1.61,-6.93
1198,1,1.0005,-0.0024,0.1340,-5.25,1.92,0.00
1198,2,0.9907,-0.0198,0.2026,-5.95,2.08,-2.87
1198,3,1.0010,0.0137,0.2056,-7.33,3.24,-2.03
1198,4,0.9753,-0.0088,0.2368,-6.85,3.66,-3.28
1198,5,1.2314,0.1650,0.0745,-0.63,-6.72,-2.67
1208,0,0.0082,0.0145,1.0020,-4.38,-1.72,-7.63
1208,1,0.9966,-0.0076,0.1348,-6.32,2.55,0.09
1208,2,0.9973,-0.0225,0.1985,-6.95,2.31,-2.99
1208,3,0.9912,-0.0073,0.2197,-8.70,3.25,-2.11
1208,4,0.9780,-0.0212,0.2476,-8.00,3.59,-3.76
1208,5,1.2390,0.1479,0.0686,-2.27,-7.34,-2.87
1218,0,0.0170,0.0245,1.0061,0.04,-1.82,-9.08
1218,1,0.9993,-0.0042,0.1416,-7.51,2.09,-0.18
1218,2,0.9985,-0.0166,0.2166,-8.11,2.56,-3.44
1218,3,0.9934,0.0173,0.2151,-9.50,3.51,-2.31
1218,4,0.9780,0.0007,0.2600,-8.66,3.53,-3.91
1218,5,1.2290,0.1716,0.0913,-2.84,-6.89,-3.11
1229,0,-0.0038,-0.0172,1.0017,-0.02,-1.82,-9.41
1229,1,0.9907,0.0122,0.1641,-6.69,2.58,-0.02
1229,2,0.9690,0.0085,0.2832,-6.98,2.87,-2.89
1229,3,0.9797,0.0540,0.2463,-7.86,3.59,-1.73
1229,4,0.9666,0.0344,0.2996,-6.75,3.97,-3.04
1229,5,1.2205,0.2058,0.1711,-0.31,-6.53,-2.29
1240,0,-0.0268,-0.1087,1.0082,-0.61,-1.92,-6.39
1240,1,0.9895,0.0251,0.2068,-2.73,2.53,0.50
1240,2,0.9604,0.0161,0.3208,-2.63,2.70,-1.83
1240,3,0.9741,0.0681,0.2480,-3.36,4.00,-0.60
1240,4,0.9443,0.0513,0.3303,-2.09,4.78,-1.54
1240,5,1.1902,0.2148,0.1887,4.55,-5.39,-0.64
1250,0,-0.0312,-0.1487,0.9947,-1.92,-2.17,-0.82
1250,1,0.9863,0.0247,0.2236,2.09,3.27,1.50
1250,2,0.9678,0.0188,0.3145,1.69,3.79,-0.41
1250,3,0.9822,0.0586,0.2554,0.87,4.49,0.46
1250,4,0.9543,0.0347,0.3125,1.82,5.18,-0.50
1250,5,1.2114,0.2036,0.1687,8.08,-5.21,0.21
1260,0,-0.0260,-0.0985,1.0042,-2.03,-2.15,2.28
1260,1,1.0020,0.0063,0.1614,4.40,3.60,1.91
1260,2,0.9919,-0.0127,0.2354,3.18,3.76,-0.09
1260,3,0.9946,0.0181,0.2195,2.31,4.60,0.50
1260,4,0.9824,0.0061,0.2583,3.19,4.84,-0.15
1260,5,1.2327,0.1809,0.1091,9.39,-5.63,0.52
1271,0,-0.0028,-0.0220,1.0067,-1.63,-2.00,3.29
1271,1,0.9956,-0.0076,0.1450,4.66,3.77,1.80
1271,2,0.9988,-0.0198,0.2131,3.80,4.08,0.02
1271,3,0.9900,0.0027,0.2283,2.38,5.04,0.76
1271,4,0.9758,-0.0220,0.2754,2.72,5.48,-0.09
1271,5,1.2307,0.1572,0.1057,8.93,-5.13,0.55
1282,0,0.0149,-0.0121,1.0109,-1.77,-2.05,2.47
1282,1,0.9932,-0.0105,0.1638,3.77,2.85,1.56
1282,2,0.9885,-0.0203,0.2288,2.79,2.82,-0.34
1282,3,0.9885,0.0046,0.2366,1.36,4.21,0.14
1282,4,0.9680,-0.0159,0.2739,1.76,4.76,-0.58
1282,5,1.2227,0.1545,0.1074,7.63,-5.88,-0.11
1291,0,0.0095,-0.0128,1.0013,-1.37,-2.12,1.40
1291,1,1.0002,-0.0088,0.1470,2.96,3.47,1.45
1291,2,0.9861,-0.0193,0.2190,1.97,3.44,-0.55
1291,3,0.9871,0.0042,0.2297,0.40,4.60,0.24
1291,4,0.9688,-0.0156,0.2681,0.96,5.13,-0.73
1291,5,1.2244,0.1582,0.0950,6.89,-5.33,0.11
1302,0,0.0129,-0.0055,1.0006,-2.19,-2.15,0.65
1302,1,1.0024,-0.0071,0.1558,2.02,3.80,1.59
1302,2,0.9922,-0.0254,0.2300,1.07,3.85,-0.53
1302,3,0.9861,0.0132,0.2356,-0.26,5.08,0.46
1302,4,0.9768,-0.0046,0.2688,0.43,5.44,-0.79
1302,5,1.2292,0.1597,0.1047,6.37,-5.15,-0.02
1313,0,0.0041,-0.0234,1.0028,-2.33,-2.24,0.21
1313,1,0.9963,-0.0012,0.1614,2.17,4.15,1.71
1313,2,0.9878,-0.0073,0.2476,1.48,4.18,-0.44
1313,3,0.9873,0.0239,0.2441,0.11,5.18,0.24
1313,4,0.9631,0.0083,0.2805,0.76,5.76,-0.50
1313,5,1.2224,0.1802,0.1223,7.08,-4.60,0.34
1323,0,-0.0070,-0.0453,1.0044,-2.50,-2.29,0.84
1323,1,0.9922,0.0029,0.1750,2.40,3.76,1.79
1323,2,0.9851,-0.0071,0.2500,1.85,4.11,-0.41
1323,3,0.9851,0.0203,0.2480,0.41,5.27,0.43
1323,4,0.9690,0.0002,0.2891,1.08,5.50,-0.73
1323,5,1.2263,0.1758,0.1230,7.36,-5.11,0.17
1333,0,-0.0044,-0.0398,1.0052,-2.41,-2.19,0.89
1333,1,0.9897,0.0020,0.1748,2.46,3.66,1.66
1333,2,0.9832,-0.0107,0.2458,1.77,3.79,-0.49
1333,3,0.9807,0.0171,0.2498,0.23,4.81,0.23
1333,4,0.9670,-0.0039,0.2871,0.66,5.34,-0.73
1333,5,1.2322,0.1616,0.1216,6.76,-5.27,-0.08
1344,0,0.0024,-0.0326,1.0116,-1.86,-2.13,0.42
1344,1,0.9968,-0.0042,0.1741,1.80,3.13,1.33
1344,2,0.9907,-0.0134,0.2410,1.07,2.87,-0.93
1344,3,0.9902,0.0142,0.2400,-0.29,4.05,-0.12
1344,4,0.9741,-0.0042,0.2764,0.35,4.43,-1.10
1344,5,1.2312,0.1624,0.1118,6.21,-6.32,-0.27
1354,0,0.0029,-0.0262,1.0058,-1.01,-1.94,0.02
1354,1,0.9958,0.0007,0.1653,1.62,2.56,1.10
1354,2,0.9897,-0.0156,0.2280,0.70,2.53,-1.01
1354,3,0.9910,0.0164,0.2378,-0.52,3.89,-0.37
1354,4,0.9705,-0.0063,0.2754,-0.08,4.15,-1.36
1354,5,1.2295,0.1670,0.1077,6.08,-6.37,-0.55
1365,0,0.0026,-0.0238,1.0043,-0.52,-1.86,-0.28
1365,1,0.9985,-0.0042,0.1616,1.31,2.38,0.96
1365,2,0.9871,-0.0176,0.2329,0.52,2.17,-1.18
1365,3,0.9900,0.0134,0.2344,-0.69,3.47,-0.35
1365,4,0.9695,-0.0015,0.2759,-0.26,3.95,-1.44
1365,5,1.2273,0.1697,0.1077,5.80,-6.72,-0.84
1375,0,0.0024,-0.0265,1.0054,-0.16,-1.73,-0.52
1375,1,0.9985,-0.0027,0.1575,1.16,2.27,1.01
1375,2,0.9861,-0.0137,0.2334,0.17,2.20,-1.11
1375,3,0.9880,0.0156,0.2305,-1.05,3.80,-0.46
1375,4,0.9697,-0.0022,0.2756,-0.29,3.98,-1.37
1375,5,1.2249,0.1697,0.1057,5.76,-6.34,-0.79
1385,0,0.0013,-0.0242,1.0032,-0.54,-1.82,-0.75
1385,1,0.9973,-0.0012,0.1570,0.99,2.46,1.37
1385,2,0.9905,-0.0156,0.2278,0.38,2.61,-1.36
1385,3,0.9910,0.0164,0.2273,-1.08,4.03,-0.24
1385,4,0.9741,-0.0034,0.2639,-0.31,4.44,-1.24
1385,5,1.2295,0.1677,0.1013,5.48,-6.20,-0.64
1396,0,0.0022,-0.0217,1.0030,-0.82,-1.84,-0.68
1396,1,0.9980,-0.0015,0.1555,0.95,2.79,1.07
1396,2,0.9890,-0.0186,0.2271,0.31,2.58,-0.98
1396,3,0.9856,0.0154,0.2239,-1.13,3.94,-0.40
1396,4,0.9724,-0.0056,0.2625,-0.44,4.29,-1.25
1396,5,1.2241,0.1697,0.1011,5.74,-5.95,-0.70
1407,0,0.0026,-0.0203,0.9999,-1.10,-2.00,-0.61
1407,1,0.9968,-0.0017,0.1499,1.02,2.85,1.37
1407,2,0.9866,-0.0117,0.2261,0.26,3.01,-1.07
1407,3,0.9912,0.0151,0.2253,-0.98,4.27,-0.15
1407,4,0.9729,-0.0044,0.2683,-0.41,4.50,-1.31
1407,5,1.2288,0.1680,0.0994,5.77,-6.12,-0.40
1417,0,0.0030,-0.0228,1.0054,-1.10,-1.96,-0.60
1417,1,0.9990,0.0024,0.1560,1.10,2.82,1.19
1417,2,0.9922,-0.0151,0.2319,0.41,2.61,-1.01
1417,3,0.9912,0.0164,0.2273,-0.92,4.03,-0.21
1417,4,0.9666,0.0015,0.2649,-0.31,4.47,-1.33
1417,5,1.2205,0.1672,0.1038,5.82,-6.15,-0.55
1427,0,0.0013,-0.0231,0.9983,-1.31,-1.94,-0.54
1427,1,1.0022,0.0000,0.1553,1.27,2.96,1.34
1427,2,0.9895,-0.0142,0.2307,0.55,3.10,-1.05
1427,3,0.9912,0.0156,0.2297,-0.90,4.05,-0.12
1427,4,0.9744,0.0002,0.2683,-0.15,4.34,-1.25
1427,5,1.2322,0.1680,0.1045,5.82,-6.31,-0.78
1438,0,0.0018,-0.0238,1.0093,-0.54,-1.91,-0.51
1438,1,0.9980,-0.0022,0.1584,1.18,2.27,1.18
1438,2,0.9912,-0.0120,0.2297,0.46,2.18,-1.31
1438,3,0.9905,0.0129,0.2241,-0.78,3.69,-0.24
1438,4,0.9683,0.0024,0.2646,-0.09,4.24,-1.27
1438,5,1.2202,0.1753,0.1006,6.14,-6.29,-0.55
1448,0,0.0004,-0.0188,0.9969,-0.81,-1.89,-0.40
1448,1,1.0022,0.0020,0.1504,1.44,2.92,1.25
1448,2,0.9888,-0.0159,0.2290,0.69,2.96,-1.05
1448,3,0.9890,0.0166,0.2275,-0.49,4.17,-0.11
1448,4,0.9751,-0.0002,0.2664,-0.02,4.52,-1.18
1448,5,1.2258,0.1733,0.1079,6.02,-6.14,-0.56
1458,0,0.0009,-0.0232,1.0030,-0.94,-1.91,-0.12
1458,1,0.9956,0.0005,0.1560,1.62,3.04,1.39
1458,2,0.9866,-0.0149,0.2292,0.82,3.07,-0.90
1458,3,0.9851,0.0139,0.2288,-0.46,4.18,0.02
1458,4,0.9739,-0.0032,0.2695,-0.02,4.78,-1.07
1458,5,1.2273,0.1658,0.1079,6.29,-5.91,-0.35
1469,0,0.0032,-0.0227,1.0037,-1.23,-1.94,-0.12
1469,1,0.9998,0.0005,0.1580,1.50,2.82,1.30
1469,2,0.9900,-0.0149,0.2300,0.72,3.10,-0.76
1469,3,0.9858,0.0110,0.2285,-0.58,4.17,-0.14
1469,4,0.9661,-0.0027,0.2708,0.02,4.56,-1.07
1469,5,1.2271,0.1675,0.1079,6.05,-5.94,-0.41
1479,0,0.0028,-0.0226,1.0010,-1.21,-2.03,-0.26
1479,1,0.9995,-0.0032,0.1565,1.48,2.78,1.33
1479,2,0.9912,-0.0134,0.2332,0.53,2.95,-0.78
1479,3,0.9893,0.0144,0.2268,-0.69,4.27,-0.03
1479,4,0.9731,-0.0046,0.2710,-0.18,4.58,-1.05
1479,5,1.2302,0.1665,0.1108,5.82,-5.88,-0.61
1490,0,0.0033,-0.0228,1.0066,-1.10,-1.91,-0.51
1490,1,0.9983,-0.0032,0.1536,1.21,2.72,1.08
1490,2,0.9919,-0.0134,0.2295,0.41,2.81,-1.19
1490,3,0.9890,0.0107,0.2266,-0.89,4.12,-0.24
1490,4,0.9709,-0.0046,0.2708,-0.14,4.49,-1.28
1490,5,1.2307,0.1670,0.1086,5.88,-6.12,-0.41
1500,0,0.0023,-0.0223,1.0061,-0.86,-1.92,-0.56
1500,1,0.9993,-0.0027,0.1609,1.22,2.56,1.16
1500,2,0.9880,-0.0193,0.2322,0.58,2.70,-1.18
1500,3,0.9868,0.0129,0.2275,-0.92,4.11,-0.24
1500,4,0.9729,-0.0027,0.2690,-0.15,4.44,-1.21
1500,5,1.2251,0.1672,0.1104,5.85,-6.37,-0.56
1510,0,0.0024,-0.0216,1.0015,-0.86,-1.86,-0.49
1510,1,1.0010,-0.0010,0.1553,1.28,2.63,1.18
1510,2,0.9902,-0.0173,0.2317,0.27,2.58,-1.15
1510,3,0.9907,0.0122,0.2280,-0.85,4.02,-0.44
1510,4,0.9702,-0.0044,0.2686,-0.35,4.18,-1.39
1510,5,1.2241,0.1682,0.1003,5.73,-6.35,-0.69
1521,0,0.0016,-0.0227,1.0000,-0.72,-1.87,-0.51
1521,1,0.9990,-0.0022,0.1555,1.19,2.72,1.15
1521,2,0.9902,-0.0159,0.2317,0.37,2.63,-1.07
1521,3,0.9888,0.0132,0.2268,-0.81,3.97,-0.11
1521,4,0.9695,-0.0042,0.2683,-0.15,4.35,-1.28
1521,5,1.2266,0.1711,0.1140,5.88,-6.32,-0.67
1532,0,0.0034,-0.0238,1.0036,-0.75,-1.94,-0.47
1532,1,0.9971,0.0029,0.1504,1.18,2.63,1.25
1532,2,0.9895,-0.0134,0.2258,0.52,2.78,-1.16
1532,3,0.9890,0.0183,0.2200,-0.70,4.23,-0.32
1532,4,0.9678,0.0002,0.2629,-0.06,4.35,-0.98
1532,5,1.2271,0.1726,0.1084,6.09,-6.14,-0.58
1541,0,-0.0002,-0.0237,1.0032,-0.96,-1.87,-0.16
1541,1,0.9946,-0.0002,0.1482,1.71,2.72,1.28
1541,2,0.9883,-0.0178,0.2278,0.89,2.63,-0.76
1541,3,0.9871,0.0142,0.2156,-0.18,4.32,-0.02
1541,4,0.9692,-0.0007,0.2639,0.32,4.73,-0.96
1541,5,1.2283,0.1729,0.0981,6.34,-5.94,-0.44
1552,0,-0.0002,-0.0234,1.0038,-1.17,-2.00,0.33
1552,1,0.9998,-0.0024,0.1631,1.85,2.76,1.39
1552,2,0.9890,-0.0176,0.2332,1.13,3.05,-0.87
1552,3,0.9839,0.0090,0.2324,0.02,4.27,-0.15
1552,4,0.9690,-0.0032,0.2683,0.58,4.49,-1.04
1552,5,1.2283,0.1670,0.1050,6.40,-5.98,-0.35
1563,0,0.0040,-0.0238,1.0020,-0.93,-1.86,0.16
1563,1,0.9963,-0.0024,0.1597,1.79,2.84,1.28
1563,2,0.9932,-0.0193,0.2334,1.10,2.72,-0.82
1563,3,0.9905,0.0112,0.2368,-0.40,3.97,0.02
1563,4,0.9700,-0.0039,0.2700,0.27,4.43,-1.13
1563,5,1.2258,0.1641,0.1101,6.06,-6.12,-0.32
1573,0,0.0040,-0.0226,1.0017,-0.94,-1.92,-0.05
1573,1,0.9956,0.0007,0.1567,1.59,2.90,1.37
1573,2,0.9922,-0.0164,0.2324,0.58,2.95,-0.95
1573,3,0.9897,0.0132,0.2310,-0.69,4.24,0.02
1573,4,0.9751,-0.0054,0.2705,0.05,4.66,-1.04
1573,5,1.2300,0.1653,0.1130,6.23,-6.02,-0.78
1583,0,0.0052,-0.0257,1.0069,-1.01,-1.96,-0.28
1583,1,0.9915,-0.0024,0.1516,1.59,2.70,1.36
1583,2,0.9858,-0.0154,0.2339,0.67,2.82,-0.99
1583,3,0.9885,0.0161,0.2249,-0.56,4.17,-0.18
1583,4,0.9719,-0.0010,0.2656,0.18,4.66,-1.11
1583,5,1.2246,0.1741,0.1045,6.17,-5.95,-0.52
1594,0,0.0027,-0.0249,1.0049,-0.96,-1.91,0.16
1594,1,1.0007,0.0046,0.1367,2.21,2.75,1.51
1594,2,0.9900,-0.0034,0.2202,1.92,2.78,-0.82
1594,3,0.9995,0.0359,0.1770,1.05,4.20,0.38
1594,4,0.9829,0.0391,0.2146,2.24,4.64,-0.40
1594,5,1.2268,0.2312,0.0601,9.04,-5.74,0.32
1604,0,-0.0370,-0.0345,0.9917,-1.84,-2.10,4.83
1604,1,1.0173,0.0244,0.0693,9.21,4.20,2.82
1604,2,1.0032,0.0085,0.1865,9.05,4.52,1.63
1604,3,1.0115,0.0334,0.1389,8.17,5.86,2.46
1604,4,0.9902,0.0151,0.2104,9.02,5.91,2.09
1604,5,1.2451,0.1716,0.0967,15.47,-5.21,2.44
1615,0,-0.0023,-0.0161,1.0135,-2.35,-2.28,4.99
1615,1,0.9924,-0.0256,0.2080,9.36,3.45,2.73
1615,2,0.9819,-0.0420,0.2546,7.69,2.84,1.11
1615,3,0.9685,-0.0271,0.3186,6.21,4.60,1.42
1615,4,0.9556,-0.0476,0.3440,5.83,4.89,0.47
1615,5,1.2236,0.1194,0.1489,11.18,-6.26,0.96
1625,0,0.0346,-0.0249,1.0069,-0.88,-2.05,4.20
1625,1,0.9978,-0.0115,0.1934,4.63,2.31,1.68
1625,2,0.9922,-0.0256,0.2522,3.50,2.02,-0.34
1625,3,0.9802,0.0029,0.2637,2.18,3.89,0.24
1625,4,0.9668,-0.0107,0.2817,2.93,3.86,-0.55
1625,5,1.2339,0.1670,0.1177,9.08,-7.21,0.00
1635,0,0.0068,-0.0292,1.0039,0.12,-1.77,2.90
1635,1,0.9941,0.0039,0.1331,5.22,2.96,1.85
1635,2,0.9863,-0.0132,0.2244,4.55,2.90,0.14
1635,3,0.9919,0.0193,0.2192,3.19,4.20,0.76
1635,4,0.9788,-0.0034,0.2661,3.91,4.60,0.08
1635,5,1.2363,0.1665,0.1082,10.14,-6.44,0.69
1646,0,0.0012,-0.0284,1.0095,-0.77,-1.86,4.39
1646,1,1.0044,-0.0032,0.1370,6.47,3.01,2.03
1646,2,0.9893,-0.0144,0.2207,5.76,2.87,0.40
1646,3,0.9993,0.0129,0.2048,4.72,4.49,1.07
1646,4,0.9756,-0.0063,0.2505,5.11,4.98,0.27
1646,5,1.2253,0.1545,0.1008,11.51,-6.35,0.89
1657,0,0.0087,-0.0242,1.0054,-0.82,-2.05,5.27
1657,1,0.9971,-0.0146,0.1633,6.85,2.61,2.02
1657,2,0.9805,-0.0264,0.2363,5.76,2.38,0.38
1657,3,0.9854,0.0027,0.2505,4.46,4.40,0.85
1657,4,0.9648,-0.0149,0.2871,4.85,4.56,0.23
1657,5,1.2229,0.1506,0.1162,10.60,-6.35,1.21
1666,0,0.0159,-0.0235,0.9982,-0.68,-2.05,4.13
1666,1,0.9917,-0.0137,0.1865,5.07,2.87,1.94
1666,2,0.9883,-0.0215,0.2480,3.80,2.47,0.11
1666,3,0.9736,-0.0005,0.2766,2.14,4.78,0.55
1666,4,0.9585,-0.0129,0.3032,2.46,4.98,-0.31
1666,5,1.2185,0.1599,0.1201,8.03,-5.92,0.18
1677,0,0.0087,-0.0249,0.9964,-0.96,-2.26,1.75
1677,1,0.9951,0.0066,0.1855,2.21,3.63,2.09
1677,2,0.9946,-0.0044,0.2395,1.11,3.31,-0.27
1677,3,0.9832,0.0168,0.2590,-0.17,5.56,0.32
1677,4,0.9707,0.0088,0.2886,0.18,5.83,-0.55
1677,5,1.2195,0.1743,0.1111,6.21,-5.11,0.29
1688,0,-0.0073,-0.0217,0.9993,-1.56,-2.66,-0.35
1688,1,0.9934,-0.0015,0.1602,1.11,4.52,2.12
1688,2,0.9951,-0.0105,0.2288,0.20,4.08,-0.09
1688,3,0.9895,0.0156,0.2319,-0.85,6.35,0.38
1688,4,0.9749,-0.0010,0.2754,-0.49,6.35,-0.49
1688,5,1.2202,0.1716,0.1038,5.76,-4.82,0.27
1699,0,0.0000,-0.0228,1.0019,-2.43,-2.80,-0.56
1699,1,0.9990,0.0002,0.1619,1.21,4.99,2.26
1699,2,0.9919,-0.0173,0.2378,0.21,4.21,-0.06
1699,3,0.9902,0.0137,0.2300,-1.07,6.52,0.38
1699,4,0.9670,-0.0017,0.2688,-0.34,6.66,-0.67
1699,5,1.2239,0.1670,0.1021,5.68,-4.44,0.26
1708,0,0.0029,-0.0239,1.0041,-2.36,-2.69,-0.70
1708,1,0.9961,-0.0151,0.1787,1.11,4.18,1.92
1708,2,0.9883,-0.0078,0.2153,0.41,4.23,-0.58
1708,3,0.9924,0.0137,0.2253,-0.96,5.40,0.14
1708,4,0.9697,-0.0100,0.2974,-0.32,4.56,-1.07
1708,5,1.2505,0.1594,0.1301,5.51,-6.99,-0.89
1719,0,0.0095,-0.0356,1.0253,0.33,-1.73,-0.60
1719,1,1.0144,-0.0051,0.1609,1.16,1.68,0.84
1719,2,0.9888,-0.0198,0.2397,0.46,1.66,-1.42
1719,3,0.9741,0.0168,0.2288,-0.90,3.57,-0.67
1719,4,0.9504,-0.0024,0.2595,-0.31,3.74,-1.37
1719,5,1.1985,0.1650,0.0828,5.83,-6.53,-0.49
1730,0,0.0035,-0.0245,0.9844,-0.17,-1.91,-0.65
1730,1,1.0002,-0.0044,0.1663,1.02,1.92,0.90
1730,2,1.0085,-0.0188,0.2417,0.23,2.00,-1.39
1730,3,1.0083,0.0088,0.2432,-1.10,2.85,-0.46
1730,4,0.9946,-0.0112,0.2896,-0.35,2.99,-1.76
1730,5,1.2493,0.1621,0.1187,5.68,-8.03,-1.22
1740,0,0.0052,-0.0304,0.9994,1.05,-1.50,-0.86
1740,1,0.9800,-0.0063,0.1636,0.70,1.56,0.76
1740,2,0.9797,-0.0220,0.2346,-0.21,1.39,-1.69
1740,3,0.9829,0.0076,0.2432,-1.37,2.63,-0.87
1740,4,0.9729,-0.0105,0.2830,-0.90,2.37,-2.09
1740,5,1.2371,0.1638,0.1187,5.30,-8.08,-1.65
1750,0,0.0077,-0.0305,1.0159,1.38,-1.26,-1.37
1750,1,1.0059,-0.0020,0.1626,0.56,0.32,0.34
1750,2,0.9873,-0.0188,0.2319,-0.31,0.58,-1.92
1750,3,0.9929,0.0166,0.2278,-1.48,2.21,-1.05
1750,4,0.9600,-0.0005,0.2583,-0.96,2.58,-2.02
1750,5,1.2146,0.1719,0.0979,5.10,-7.98,-1.22
1761,0,0.0018,-0.0216,0.9894,0.72,-1.56,-1.28
1761,1,1.0115,-0.0020,0.1572,0.75,1.44,0.67
1761,2,0.9944,-0.0122,0.2344,0.11,0.84,-1.56
1761,3,0.9902,0.0151,0.2212,-1.21,2.76,-0.69
1761,4,0.9639,-0.0017,0.2642,-0.47,3.15,-1.74
1761,5,1.2212,0.1719,0.1011,5.74,-7.27,-1.27
1771,0,0.0027,-0.0255,1.0006,0.54,-1.52,-0.72
1771,1,0.9915,-0.0012,0.1592,1.11,1.42,0.84
1771,2,0.9751,-0.0186,0.2222,0.35,1.28,-1.40
1771,3,0.9768,0.0161,0.2263,-0.99,3.02,-0.55
1771,4,0.9629,-0.0046,0.2698,-0.43,3.21,-1.59
1771,5,1.2300,0.1707,0.1077,5.71,-7.54,-0.96
1782,0,0.0049,-0.0253,1.0019,0.40,-1.63,-0.63
1782,1,0.9988,-0.0034,0.1582,1.04,1.62,0.76
1782,2,0.9897,-0.0144,0.2327,0.37,1.18,-1.24
1782,3,0.9910,0.0112,0.2314,-0.95,3.05,-0.56
1782,4,0.9705,-0.0061,0.2712,-0.35,3.47,-1.57
1782,5,1.2266,0.1624,0.1157,5.57,-7.10,-0.90
1792,0,0.0062,-0.0251,0.9977,0.28,-1.70,-0.51
1792,1,0.9971,-0.0051,0.1602,1.10,2.06,1.07
1792,2,0.9880,-0.0190,0.2305,0.29,1.94,-1.13
1792,3,0.9917,0.0129,0.2334,-1.04,3.30,-0.41
1792,4,0.9778,-0.0022,0.2700,-0.31,3.60,-1.48
1792,5,1.2334,0.1672,0.1089,5.85,-7.19,-0.84
1802,0,0.0040,-0.0253,1.0064,0.05,-1.73,-0.68
1802,1,0.9973,-0.0056,0.1550,1.22,2.08,1.02
1802,2,0.9880,-0.0173,0.2339,0.27,2.06,-1.15
1802,3,0.9878,0.0088,0.2297,-1.04,3.53,-0.47
1802,4,0.9722,-0.0027,0.2703,-0.26,3.97,-1.50
1802,5,1.2275,0.1667,0.1033,5.74,-6.96,-0.90
1813,0,0.0037,-0.0260,1.0033,-0.26,-1.82,-0.56
1813,1,1.0005,-0.0039,0.1580,1.19,2.18,1.11
1813,2,0.9856,-0.0178,0.2339,0.18,1.89,-1.11
1813,3,0.9873,0.0110,0.2278,-0.92,3.73,-0.46
1813,4,0.9626,-0.0071,0.2693,-0.58,4.18,-1.30
1813,5,1.2205,0.1685,0.1077,5.31,-6.63,-0.60
1824,0,0.0026,-0.0246,0.9998,-0.61,-1.89,-0.63
1824,1,0.8979,0.0015,0.1592,1.33,2.38,1.07
1824,2,0.8975,-0.0112,0.1836,0.32,2.31,-1.04
1824,3,0.9829,0.0176,0.2358,-1.45,3.13,0.56
1824,4,1.0737,-0.0051,0.3088,-0.72,5.21,-0.93
1824,5,1.3689,0.1611,0.1946,5.57,-6.89,-0.64
1833,0,0.0032,-0.0457,1.1030,0.23,-1.72,-0.56
1833,1,0.9478,-0.0022,0.1226,1.18,4.11,1.83
1833,2,0.9150,-0.0103,0.1914,0.38,4.46,-0.38
1833,3,0.9504,0.0088,0.2217,-1.28,5.97,0.63
1833,4,0.9475,-0.0098,0.2498,-0.55,6.55,-0.70
1833,5,1.2363,0.1621,0.1350,5.60,-5.11,-0.34
1844,0,0.0088,-0.0303,1.0061,-1.38,-2.07,-0.56
1844,1,1.0547,-0.0020,0.1814,1.19,1.77,1.01
1844,2,1.0083,-0.0142,0.2512,0.34,1.05,-1.44
1844,3,0.9902,0.0164,0.2268,-0.82,3.91,-0.55
1844,4,0.9221,0.0046,0.2397,-0.41,4.63,-1.15
1844,5,1.1587,0.1768,0.0681,5.77,-5.44,-0.17
1855,0,0.0011,-0.0181,0.9499,-2.00,-2.33,-0.60
1855,1,1.0051,-0.0088,0.1733,1.01,3.79,1.48
1855,2,1.0227,-0.0251,0.2512,0.24,3.44,-0.96
1855,3,1.0154,0.0085,0.2478,-1.01,4.08,-0.23
1855,4,0.9980,-0.0063,0.2869,-0.35,4.32,-1.25
1855,5,1.2390,0.1702,0.1064,5.68,-6.41,-0.52
1865,0,0.0040,-0.0270,1.0157,-0.75,-2.07,-0.74
1865,1,0.9749,0.0037,0.1572,1.15,3.71,1.51
1865,2,0.9817,-0.0210,0.2271,0.21,3.62,-0.78
1865,3,0.9854,0.0066,0.2354,-1.18,4.76,-0.11
1865,4,0.9792,-0.0046,0.2859,-0.43,4.67,-1.16
1865,5,1.2507,0.1643,0.1257,5.80,-6.02,-0.53
1875,0,0.0060,-0.0298,1.0282,-0.94,-1.92,-0.79
1875,1,0.9890,-0.0068,0.1619,0.85,2.82,1.07
1875,2,0.9697,-0.0164,0.2241,0.06,2.67,-1.04
1875,3,0.9656,0.0107,0.2295,-1.21,4.72,0.02
1875,4,0.9502,-0.0059,0.2698,-0.61,4.90,-1.22
1875,5,1.2302,0.1650,0.1140,5.30,-5.98,-0.70
1886,0,0.0082,-0.0282,1.0032,-1.24,-2.03,-1.24
1886,1,1.0044,-0.0107,0.1816,0.14,2.37,1.01
1886,2,0.9900,-0.0237,0.2434,-0.72,2.14,-1.37
1886,3,0.9714,0.0029,0.2588,-2.20,4.00,-0.43
1886,4,0.9531,-0.0166,0.2893,-1.85,4.49,-1.73
1886,5,1.2080,0.1514,0.1133,3.98,-6.02,-0.99
1896,0,0.0129,-0.0257,0.9961,-0.74,-2.00,-2.48
1896,1,0.9968,-0.0151,0.1899,-1.69,2.49,0.85
1896,2,0.9907,-0.0276,0.2488,-2.72,2.24,-1.74
1896,3,0.9863,-0.0027,0.2764,-4.11,3.69,-1.25
1896,4,0.9600,-0.0210,0.2964,-3.60,3.94,-2.49
1896,5,1.2227,0.1521,0.1243,2.03,-6.78,-1.85
1907,0,0.0131,-0.0277,1.0020,-0.17,-1.73,-4.62
1907,1,0.9929,-0.0095,0.1802,-3.24,2.14,0.18
1907,2,0.9922,-0.0210,0.2444,-4.11,1.92,-2.27
1907,3,0.9875,0.0049,0.2517,-5.56,3.33,-1.63
1907,4,0.9688,-0.0054,0.2854,-4.69,3.36,-2.85
1907,5,1.2292,0.1655,0.1077,1.25,-7.18,-1.97
1917,0,0.0049,-0.0300,0.9942,0.17,-1.64,-5.39
1917,1,0.9978,-0.0002,0.1506,-3.57,2.06,0.17
1917,2,1.0051,-0.0117,0.2290,-3.89,2.29,-2.27
1917,3,1.0151,0.0183,0.2224,-5.21,3.07,-1.56
1917,4,1.0120,0.0063,0.2732,-4.43,3.39,-2.69
1917,5,1.2644,0.1790,0.1143,1.94,-7.11,-1.79
1927,0,-0.0041,-0.0272,1.0207,0.02,-1.87,-4.32
1927,1,0.9749,0.0017,0.1367,-2.29,3.45,1.18
1927,2,0.9653,-0.0090,0.2190,-2.95,3.57,-1.42
1927,3,0.9802,0.0168,0.2124,-4.34,4.81,-0.70
1927,4,0.9648,0.0071,0.2629,-3.33,4.87,-2.06
1927,5,1.2363,0.1741,0.1147,2.76,-6.15,-1.24
1938,0,-0.0004,-0.0306,1.0217,-0.70,-1.86,-3.43
1938,1,1.0112,0.0002,0.1504,-1.10,1.82,0.52
1938,2,0.9912,-0.0076,0.2253,-1.53,1.66,-1.86
1938,3,0.9873,0.0195,0.2087,-2.99,3.54,-0.89
1938,4,0.9602,0.0051,0.2522,-2.18,4.06,-2.02
1938,5,1.2107,0.1746,0.0930,4.15,-6.24,-1.16
1949,0,-0.0034,-0.0233,0.9886,-0.35,-1.94,-2.20
1949,1,1.0098,0.0005,0.1499,-0.11,2.09,0.69
1949,2,1.0017,-0.0129,0.2324,-0.75,1.97,-1.63
1949,3,0.9968,0.0217,0.2158,-1.86,3.31,-0.70
1949,4,0.9702,0.0017,0.2629,-1.34,3.50,-1.82
1949,5,1.2227,0.1726,0.1011,5.04,-7.15,-1.07
1959,0,-0.0007,-0.0279,0.9941,0.04,-1.72,-1.45
1959,1,0.9980,0.0059,0.1501,0.82,2.05,0.81
1959,2,0.9951,-0.0144,0.2334,0.12,1.89,-1.34
1959,3,0.9951,0.0154,0.2185,-1.25,3.31,-0.60
1959,4,0.9807,0.0032,0.2656,-0.40,3.34,-1.36
1959,5,1.2312,0.1704,0.1062,5.83,-7.25,-0.96
1969,0,0.0023,-0.0253,1.0058,0.14,-1.61,-0.60
1969,1,0.9919,-0.0049,0.1628,1.01,1.92,1.11
1969,2,0.9827,-0.0200,0.2314,0.35,1.85,-1.07
1969,3,0.9856,0.0112,0.2361,-0.92,3.31,-0.60
1969,4,0.9709,-0.0029,0.2751,-0.40,3.48,-1.60
1969,5,1.2283,0.1643,0.1101,6.20,-7.27,-0.95
1980,0,0.0056,-0.0284,1.0065,0.21,-1.66,-0.77
1980,1,0.9961,0.0000,0.1606,1.15,1.69,0.92
1980,2,0.9888,-0.0156,0.2310,0.26,1.57,-1.45
1980,3,0.9836,0.0105,0.2319,-0.92,2.98,-0.52
1980,4,0.9678,-0.0034,0.2744,-0.12,3.45,-1.66
1980,5,1.2251,0.1687,0.1028,5.71,-7.16,-0.84
1991,0,0.0040,-0.0270,1.0032,0.33,-1.68,-0.58
1991,1,0.9946,-0.0071,0.1636,1.21,1.30,0.84
1991,2,0.9883,-0.0203,0.2375,0.44,1.25,-1.54
1991,3,0.9836,0.0100,0.2397,-0.81,2.31,-0.72
1991,4,0.9692,-0.0037,0.2754,-0.27,2.69,-1.80
1991,5,1.2214,0.1675,0.1069,5.82,-7.69,-1.11
2000,0,0.0059,-0.0262,1.0016,0.54,-1.54,-0.63
2000,1,0.9998,-0.0044,0.1584,1.42,1.79,0.99
2000,2,0.9871,-0.0144,0.2329,0.41,1.92,-1.36
2000,3,0.9897,0.0146,0.2292,-0.69,3.45,-0.40
2000,4,0.9700,-0.0015,0.2703,-0.37,3.85,-1.44
2000,5,1.2256,0.1641,0.1045,5.82,-6.85,-0.64
2011,0,0.0033,-0.0257,1.0030,-0.40,-1.84,-0.56
2011,1,0.9932,-0.0032,0.1655,1.07,1.91,0.98
2011,2,0.9890,-0.0181,0.2368,0.40,1.76,-1.33
2011,3,0.9900,0.0127,0.2356,-0.90,3.04,-0.55
2011,4,0.9695,-0.0049,0.2734,-0.32,3.50,-1.62
2011,5,1.2244,0.1689,0.1135,5.59,-7.28,-0.95
2022,0,0.0043,-0.0270,0.9992,-0.16,-1.64,-0.56
2022,1,1.0005,-0.0037,0.1597,1.11,1.97,0.82
2022,2,0.9878,-0.0161,0.2319,0.40,1.98,-1.36
2022,3,0.9861,0.0166,0.2300,-0.81,3.15,-0.40
2022,4,0.9700,-0.0010,0.2742,-0.29,3.53,-1.37
2022,5,1.2292,0.1672,0.1160,5.76,-7.05,-0.66
2032,0,0.0028,-0.0278,1.0047,-0.12,-1.68,-0.63
2032,1,0.9958,-0.0015,0.1609,1.24,1.69,0.85
2032,2,0.9888,-0.0181,0.2334,0.50,1.54,-1.30
2032,3,0.9902,0.0132,0.2366,-1.02,3.15,-0.47
2032,4,0.9646,-0.0027,0.2732,-0.21,3.27,-1.57
2032,5,1.2275,0.1694,0.1072,6.00,-7.45,-1.04
2042,0,0.0044,-0.0278,1.0042,0.19,-1.52,-0.60
2042,1,0.9956,0.0007,0.1621,1.19,1.86,0.95
2042,2,0.9885,-0.0176,0.2319,0.24,1.74,-1.34
2042,3,0.9866,0.0151,0.2314,-0.84,3.04,-0.47
2042,4,0.9675,-0.0024,0.2700,-0.23,3.30,-1.59
2042,5,1.2283,0.1694,0.1138,5.79,-6.93,-0.82
2053,0,0.0018,-0.0267,1.0036,-0.12,-1.73,-0.60
2053,1,0.9937,-0.0010,0.1592,1.24,1.98,1.01
2053,2,0.9844,-0.0144,0.2319,0.46,2.34,-1.05
2053,3,0.9832,0.0161,0.2314,-0.87,3.62,-0.24
2053,4,0.9709,0.0017,0.2788,-0.40,4.08,-1.28
2053,5,1.2258,0.1733,0.1116,5.92,-6.73,-0.55
2063,0,-0.0024,-0.0326,1.0009,-0.46,-1.89,-0.52
2063,1,0.9993,0.0239,0.1731,1.28,2.87,1.56
2063,2,0.9829,0.0195,0.2524,0.52,2.90,-0.85
2063,3,0.9817,0.0530,0.2478,-0.67,4.63,-0.18
2063,4,0.9626,0.0515,0.2969,-0.20,5.01,-0.85
2063,5,1.2122,0.2256,0.1479,6.06,-5.56,-0.11
2074,0,-0.0487,-0.0915,0.9948,-1.68,-2.15,-0.38
2074,1,0.9924,0.0439,0.1941,1.15,4.15,1.73
2074,2,0.9854,0.0227,0.2546,-0.05,4.00,-0.49
2074,3,0.9829,0.0381,0.2649,-1.11,5.54,0.14
2074,4,0.9727,0.0110,0.2891,-0.99,5.63,-0.92
2074,5,1.2307,0.1660,0.1133,5.36,-5.37,-0.23
2084,0,0.0024,-0.0217,1.0056,-1.72,-2.22,-1.33
2084,1,0.9937,-0.0181,0.1609,0.17,3.94,1.76
2084,2,0.9905,-0.0361,0.2251,-0.55,3.63,-0.63
2084,3,0.9917,-0.0112,0.2273,-2.06,5.69,-0.20
2084,4,0.9761,-0.0276,0.2671,-1.42,5.94,-1.36
2084,5,1.2344,0.1436,0.1040,4.49,-5.28,-0.63
2094,0,0.0260,-0.0149,1.0050,-1.26,-2.36,-1.72
2094,1,0.9961,-0.0110,0.1582,-0.21,4.15,1.80
2094,2,0.9844,-0.0276,0.2329,-1.01,3.59,-0.55
2094,3,0.9851,0.0049,0.2327,-2.32,6.27,-0.17
2094,4,0.9717,-0.0100,0.2776,-1.65,5.88,-1.16
2094,5,1.2236,0.1606,0.1118,4.05,-5.40,-0.40
2105,0,0.0100,-0.0232,1.0028,-1.42,-2.45,-2.41
2105,1,0.9915,0.0000,0.1748,-1.07,4.37,1.65
2105,2,0.9858,-0.0146,0.2446,-2.12,3.62,-0.70
2105,3,0.9817,0.0178,0.2639,-3.63,6.02,-0.15
2105,4,0.9634,0.0010,0.2925,-3.07,6.00,-1.45
2105,5,1.2256,0.1721,0.1187,2.98,-5.16,-0.90
2115,0,-0.0045,-0.0268,1.0017,-1.35,-2.52,-3.87
2115,1,0.9915,0.0005,0.1821,-2.96,4.18,1.65
2115,2,0.9893,-0.0093,0.2402,-3.88,3.65,-1.27
2115,3,0.9871,0.0159,0.2629,-5.45,6.08,-0.64
2115,4,0.9670,-0.0059,0.2900,-4.95,5.89,-1.91
2115,5,1.2258,0.1631,0.1177,1.19,-5.10,-1.21
2125,0,0.0034,-0.0203,1.0020,-1.38,-2.66,-5.76
2125,1,0.9980,-0.0029,0.1616,-4.37,4.47,1.47
2125,2,0.9944,-0.0205,0.2285,-5.18,3.85,-1.37
2125,3,0.9971,0.0103,0.2339,-6.49,6.47,-0.66
2125,4,0.9780,-0.0112,0.2742,-5.91,6.27,-2.27
2125,5,1.2373,0.1653,0.0979,0.11,-4.85,-1.10
2136,0,0.0071,-0.0176,1.0041,-1.38,-2.85,-6.25
2136,1,1.0005,-0.0032,0.1465,-4.46,4.52,1.77
2136,2,0.9934,-0.0117,0.2244,-5.02,3.63,-0.95
2136,3,0.9968,0.0176,0.2166,-6.21,6.63,-0.09
2136,4,0.9805,0.0049,0.2581,-5.44,6.20,-1.73
2136,5,1.2339,0.1758,0.0986,0.76,-5.27,-0.67
2146,0,-0.0030,-0.0190,1.0055,-1.26,-3.18,-5.37
2146,1,1.0144,0.0081,0.1482,-3.73,4.00,2.34
2146,2,0.9951,-0.0020,0.2261,-4.44,3.34,-0.20
2146,3,1.0088,0.0293,0.2214,-5.60,5.86,0.47
2146,4,0.9912,0.0215,0.2659,-5.08,5.34,-0.73
2146,5,1.2395,0.1907,0.1035,1.21,-6.23,0.26
2157,0,-0.0163,-0.0187,1.0041,-0.28,-4.11,-4.88
2157,1,1.0322,0.0278,0.1587,-3.53,2.82,3.91
2157,2,1.0115,0.0181,0.2319,-4.61,1.91,1.51
2157,3,1.0645,0.0586,0.2354,-5.79,3.48,2.78
2157,4,1.0300,0.0459,0.2754,-5.63,3.25,2.09
2157,5,1.2637,0.2207,0.0999,0.53,-8.03,3.27
2167,0,-0.0412,-0.0101,1.0041,1.45,-6.89,-4.32
2167,1,1.0898,0.0471,0.1257,-3.15,1.02,9.05
2167,2,1.0432,0.0298,0.2156,-4.50,0.29,7.18
2167,3,1.1353,0.0757,0.2058,-5.25,1.92,8.98
2167,4,1.0911,0.0615,0.2480,-5.48,1.73,8.87
2167,5,1.2974,0.2339,0.0784,1.37,-9.57,10.67
2178,0,-0.0492,-0.0021,1.0091,2.87,-14.66,-1.68
2178,1,1.1460,0.0669,0.0791,0.03,-1.19,18.56
2178,2,1.0879,0.0469,0.1865,-2.05,-1.54,17.62
2178,3,1.2505,0.1013,0.1206,-1.95,0.15,20.29
2178,4,1.1680,0.0789,0.2061,-2.58,0.00,20.53
2178,5,1.3547,0.2366,0.0698,5.30,-12.24,22.81
2189,0,-0.0264,-0.0123,1.0307,5.04,-27.46,6.56
2189,1,1.1919,-0.0027,0.1104,6.02,-5.28,32.35
2189,2,1.1121,-0.0251,0.2083,2.02,-5.68,32.40
2189,3,1.2910,0.0254,0.1960,1.91,-2.49,35.25
2189,4,1.1851,-0.0066,0.2861,0.05,-2.37,35.86
2189,5,1.3508,0.1609,0.1230,7.22,-15.45,38.03
2199,0,0.0233,-0.0089,1.0330,8.28,-39.69,10.36
2199,1,1.1917,-0.0142,0.1934,5.85,-7.54,46.82
2199,2,1.0906,-0.0327,0.2649,-0.11,-7.97,46.34
2199,3,1.2507,0.0107,0.3098,-0.47,-4.70,49.37
2199,4,1.1382,-0.0022,0.3467,-3.71,-4.17,49.73
2199,5,1.3076,0.1584,0.1621,3.94,-16.55,52.09
2209,0,0.0267,-0.0581,1.0159,8.72,-55.11,10.89
2209,1,1.1689,-0.0271,0.2036,4.79,-4.82,61.51
2209,2,1.0728,-0.0505,0.2812,-2.53,-4.93,60.67
2209,3,1.2078,-0.0059,0.2983,-2.34,-0.58,63.62
2209,4,1.1091,-0.0247,0.3271,-6.64,0.85,63.71
2209,5,1.2966,0.1357,0.1423,1.54,-12.20,65.53
2220,0,0.0434,-0.0412,1.0106,3.80,-66.46,11.13
2220,1,1.1511,-0.0349,0.1963,2.18,-0.98,74.46
2220,2,1.0664,-0.0591,0.2542,-6.73,-0.85,72.76
2220,3,1.1836,-0.0186,0.3147,-6.63,3.83,75.37
2220,4,1.0989,-0.0466,0.3462,-11.73,4.85,75.18
2220,5,1.3005,0.1079,0.1487,-3.54,-8.90,76.92
2231,0,0.0708,-0.0284,1.0222,0.79,-79.15,8.73
2231,1,1.1348,-0.0618,0.2263,-1.88,-0.87,85.05
2231,2,1.0605,-0.0881,0.2776,-11.82,-1.83,83.21
2231,3,1.1790,-0.0354,0.3323,-11.30,2.73,85.82
2231,4,1.0986,-0.0642,0.3545,-17.37,3.80,84.78
2231,5,1.2954,0.1001,0.1450,-8.53,-10.15,87.13
2242,0,0.0822,-0.0311,1.0135,1.94,-88.60,6.21
2242,1,1.1377,-0.0479,0.2283,-6.29,-0.76,95.91
2242,2,1.0610,-0.0671,0.2773,-17.39,-1.54,93.11
2242,3,1.1804,-0.0254,0.3494,-16.85,3.13,96.31
2242,4,1.0989,-0.0525,0.3672,-23.73,4.14,94.82
2242,5,1.3015,0.1047,0.1553,-14.75,-10.69,96.87
2252,0,0.0719,-0.0300,1.0192,2.38,-100.52,2.19
2252,1,1.1338,-0.0413,0.2432,-11.76,-1.57,106.23
2252,2,1.0520,-0.0684,0.2822,-24.06,-2.18,102.81
2252,3,1.1584,-0.0254,0.3672,-23.50,2.55,105.92
2252,4,1.0774,-0.0591,0.3730,-31.05,3.94,104.02
2252,5,1.2852,0.0979,0.1565,-21.44,-10.72,106.02
2262,0,0.0817,-0.0315,1.0182,2.56,-109.22,-2.99
2262,1,1.0903,-0.0547,0.2341,-17.69,-1.45,114.84
2262,2,1.0305,-0.0837,0.2732,-30.53,-1.79,110.47
2262,3,1.0925,-0.0249,0.3352,-29.69,3.73,113.33
2262,4,1.0330,-0.0583,0.3506,-37.59,4.98,110.60
2262,5,1.2605,0.0942,0.1616,-27.88,-10.12,112.81
2273,0,0.0874,-0.0387,1.0048,1.26,-117.58,-6.49
2273,1,1.0632,-0.0625,0.2197,-21.98,-0.15,121.19
2273,2,1.0117,-0.0918,0.2739,-35.34,-0.55,115.83
2273,3,1.0662,-0.0396,0.3252,-34.11,4.46,118.87
2273,4,1.0173,-0.0806,0.3359,-42.27,5.68,115.56
2273,5,1.2429,0.0625,0.1350,-31.88,-9.21,117.45
2284,0,0.1252,-0.0232,1.0031,0.86,-123.08,-9.57
2284,1,1.0176,-0.1035,0.1755,-25.15,-0.73,125.05
2284,2,1.0071,-0.1399,0.2256,-38.63,-1.02,119.39
2284,3,1.0286,-0.0774,0.2415,-36.92,4.61,121.94
2284,4,0.9973,-0.1118,0.2664,-44.99,5.88,118.26
2284,5,1.2341,0.0388,0.0867,-34.03,-10.37,120.17
2294,0,0.1497,-0.0001,0.9847,2.50,-125.40,-10.74
2294,1,0.9844,-0.1189,0.1267,-26.34,-3.54,126.78
2294,2,0.9856,-0.1455,0.1885,-39.86,-4.41,120.70
2294,3,1.0110,-0.0779,0.2219,-38.24,1.02,123.69
2294,4,0.9907,-0.1077,0.2544,-46.21,2.37,120.02
2294,5,1.2542,0.0452,0.1169,-34.61,-14.32,121.85
2305,0,0.1524,-0.0251,0.9992,5.46,-127.31,-9.84
2305,1,1.0132,-0.1252,0.1248,-24.55,-7.47,129.82
2305,2,1.0115,-0.1653,0.1904,-37.65,-7.39,124.11
2305,3,1.0308,-0.0930,0.1692,-35.25,-1.65,126.90
2305,4,0.9956,-0.1260,0.2312,-43.34,-0.23,123.63
2305,5,1.2268,0.0251,0.0762,-31.85,-15.16,125.33
2316,0,0.1760,-0.0140,0.9877,6.93,-129.92,-6.02
2316,1,1.0303,-0.1594,0.1147,-21.47,-5.50,133.85
2316,2,0.9875,-0.1968,0.2161,-35.45,-6.17,128.50
2316,3,1.0342,-0.1318,0.2219,-33.66,0.06,131.44
2316,4,0.9976,-0.1621,0.2654,-42.24,1.48,128.69
2316,5,1.2568,-0.0200,0.0718,-31.18,-13.53,130.44
2327,0,0.2201,-0.0113,0.9825,4.97,-134.71,-5.39
2327,1,1.0513,-0.1995,0.1907,-22.79,-2.49,139.04
2327,2,0.9934,-0.2336,0.2268,-37.97,-3.01,133.85
2327,3,1.0635,-0.1633,0.3123,-36.53,2.35,137.40
2327,4,1.0283,-0.2112,0.3181,-45.94,4.24,134.08
2327,5,1.2373,-0.0691,0.1477,-35.13,-12.58,136.27
2337,0,0.2632,-0.0368,0.9770,3.41,-142.01,-8.10
2337,1,1.0239,-0.2302,0.2268,-27.04,-2.20,145.56
2337,2,0.9780,-0.2786,0.2507,-42.73,-2.17,139.42
2337,3,1.0178,-0.2085,0.3218,-41.04,3.50,142.82
2337,4,0.9543,-0.2505,0.3157,-50.43,5.39,139.10
2337,5,1.1851,-0.1055,0.1318,-39.37,-10.23,141.21
2348,0,0.3020,-0.0517,0.9536,0.74,-146.76,-10.59
2348,1,0.9299,-0.2737,0.1755,-29.65,0.69,150.08
2348,2,0.9822,-0.3037,0.2380,-45.30,-0.31,143.21
2348,3,0.9480,-0.2373,0.2483,-42.93,6.93,145.62
2348,4,0.9434,-0.2869,0.2705,-52.50,8.35,141.42
2348,5,1.1621,-0.1609,0.0652,-40.40,-7.53,143.08
2359,0,0.3484,-0.0041,0.9481,0.74,-148.09,-11.25
2359,1,0.8899,-0.3159,0.0981,-28.73,-2.41,149.31
2359,2,0.9016,-0.3516,0.1709,-43.82,-3.11,141.88
2359,3,0.8633,-0.2893,0.1260,-41.40,4.11,144.31
2359,4,0.8164,-0.3557,0.1785,-50.15,6.00,139.28
2359,5,1.2654,-0.1731,0.0923,-37.45,-11.07,138.84
2370,0,0.3941,-0.0038,0.9828,3.24,-142.55,-8.15
2370,1,0.8044,-0.3604,0.0701,-24.60,-6.06,142.37
2370,2,0.8303,-0.3911,0.1333,-39.13,-6.35,135.21
2370,3,0.7749,-0.3171,0.1228,-36.41,-1.33,137.74
2370,4,0.7935,-0.3538,0.1721,-44.64,0.32,132.56
2370,5,1.0674,-0.2002,0.0364,-32.47,-16.44,132.37
2380,0,0.3999,-0.0163,0.8782,6.35,-133.07,-5.55
2380,1,0.7834,-0.3699,0.1052,-21.24,-5.42,134.35
2380,2,0.8193,-0.4026,0.1809,-35.37,-6.08,127.40
2380,3,0.7461,-0.3496,0.2129,-33.48,-0.11,129.37
2380,4,0.7766,-0.3899,0.2366,-41.60,1.51,124.26
2380,5,1.1069,-0.2402,0.0847,-30.32,-14.23,124.08
2391,0,0.4209,-0.0157,0.9322,4.90,-124.90,-6.79
2391,1,0.8384,-0.3853,0.0608,-21.04,-2.05,124.44
2391,2,0.9338,-0.4238,0.1941,-33.07,-1.42,116.43
2391,3,0.6519,-0.4019,0.1902,-31.37,1.37,116.11
2391,4,0.7253,-0.4106,0.2891,-39.50,-1.30,111.94
2391,5,1.0369,-0.2854,0.0825,-29.40,-16.40,111.97
2402,0,0.4566,-0.0179,0.9144,8.51,-112.81,-8.44
2402,1,0.7388,-0.4448,0.1536,-23.19,-4.31,108.58
2402,2,0.8196,-0.4854,0.2107,-34.38,-4.73,99.76
2402,3,0.6040,-0.4456,0.2214,-32.98,0.56,100.17
2402,4,0.6797,-0.4617,0.2542,-39.21,0.67,95.02
2402,5,1.0503,-0.3054,0.1079,-29.08,-15.16,93.94
2413,0,0.4767,-0.0559,0.9093,-13.06,-38.57,-10.31
2413,1,0.6987,-0.4646,0.1404,-22.79,-7.30,91.47
2413,2,0.7888,-0.4775,0.1755,-32.15,-6.75,83.42
2413,3,0.5828,-0.4480,0.1599,-30.99,-2.37,83.62
2413,4,0.6750,-0.4661,0.2012,-35.79,-1.27,78.31
2413,5,1.0139,-0.3132,0.0361,-25.98,-14.41,77.05
2423,0,0.4810,-0.0090,0.9195,5.69,-80.32,-12.15
2423,1,0.7119,-0.4910,0.0894,-20.75,-4.21,72.72
2423,2,0.8293,-0.5117,0.1604,-27.94,-4.17,65.02
2423,3,0.6118,-0.4756,0.1108,-26.95,0.32,65.11
2423,4,0.7014,-0.4988,0.1677,-30.00,1.42,60.15
2423,5,1.0579,-0.3215,0.0286,-20.70,-11.51,59.15
2434,0,0.5017,-0.0151,0.9177,3.88,-61.85,-10.05
2434,1,0.7717,-0.4812,0.0728,-16.41,-0.93,58.11
2434,2,0.8186,-0.4937,0.1467,-21.89,-0.78,52.53
2434,3,0.7473,-0.4482,0.1033,-21.45,3.54,53.68
2434,4,0.7810,-0.4668,0.1670,-23.89,4.89,50.53
2434,5,1.0583,-0.2930,0.0181,-15.16,-7.48,51.04
2445,0,0.4836,-0.0310,0.8775,-0.31,-54.60,-9.20
2445,1,0.8772,-0.4956,0.0811,-11.86,4.63,55.07
2445,2,0.9141,-0.5132,0.1567,-17.48,4.95,50.55
2445,3,0.8862,-0.4795,0.1562,-17.69,9.08,51.94
2445,4,0.9021,-0.4873,0.2146,-20.49,9.60,49.48
2445,5,1.1770,-0.3147,0.0398,-12.44,-3.44,50.34
2456,0,0.5002,0.0189,0.9628,-4.08,-53.48,-7.33
2456,1,0.9377,-0.4805,0.0984,-11.89,4.21,53.37
2456,2,0.9360,-0.4932,0.1489,-18.00,3.34,49.30
2456,3,0.9648,-0.4563,0.1802,-18.44,6.32,50.95
2456,4,0.9431,-0.4707,0.2161,-21.18,7.18,49.02
2456,5,1.1858,-0.3032,0.0239,-13.44,-5.48,50.12
2466,0,0.4868,0.0342,0.9421,-2.05,-54.72,-6.26
2466,1,0.9399,-0.4822,0.1050,-12.29,1.68,55.15
2466,2,0.9211,-0.4983,0.1619,-18.70,0.47,50.96
2466,3,0.9543,-0.4683,0.1931,-18.67,2.64,52.64
2466,4,0.9260,-0.4854,0.2192,-21.77,2.66,50.23
2466,5,1.1687,-0.3149,0.0210,-13.65,-10.20,51.13
2477,0,0.4950,0.0339,0.9289,2.47,-55.62,-7.28
2477,1,0.8792,-0.4875,0.0811,-11.94,-2.99,54.12
2477,2,0.8711,-0.4924,0.1328,-17.89,-3.71,50.00
2477,3,0.8567,-0.4558,0.1362,-17.53,-1.22,51.28
2477,4,0.8401,-0.4636,0.1663,-20.31,-0.32,49.11
2477,5,1.0972,-0.2832,-0.0066,-12.06,-12.93,49.85
2488,0,0.4759,0.0442,0.8701,4.95,-53.71,-6.14
2488,1,0.8276,-0.4446,0.0251,-10.55,-2.95,52.11
2488,2,0.8496,-0.4563,0.0850,-16.31,-3.22,47.88
2488,3,0.8154,-0.4199,0.0752,-15.94,0.27,49.19
2488,4,0.8147,-0.4355,0.1230,-18.49,1.21,46.84
2488,5,1.0735,-0.2568,-0.0378,-10.00,-11.37,47.37
2499,0,0.4471,0.0660,0.8553,3.43,-51.12,-3.50
2499,1,0.8313,-0.4307,-0.0144,-7.53,-0.82,49.73
2499,2,0.8464,-0.4465,0.0740,-12.32,-0.47,46.00
2499,3,0.8279,-0.4070,0.0244,-11.95,2.95,47.39
2499,4,0.8262,-0.4277,0.0906,-13.88,3.68,45.45
2499,5,1.0901,-0.2632,-0.0564,-5.47,-8.98,46.21
2508,0,0.4519,0.0651,0.8574,1.26,-47.99,0.14
2508,1,0.8369,-0.4653,-0.0212,-2.35,0.23,47.57
2508,2,0.8574,-0.4836,0.0732,-7.08,0.09,44.20
2508,3,0.8379,-0.4438,0.0398,-6.70,3.08,45.15
2508,4,0.8401,-0.4644,0.1108,-8.63,3.45,43.45
2508,5,1.1062,-0.2998,-0.0225,-0.31,-9.37,43.95
2519,0,0.4939,0.0451,0.8816,1.84,-40.35,4.97
2519,1,0.8335,-0.5007,0.0303,1.37,-1.42,43.86
2519,2,0.8547,-0.5166,0.1045,-3.28,-1.73,40.93
2519,3,0.8145,-0.4875,0.1072,-3.24,0.76,41.82
2519,4,0.8098,-0.5076,0.1692,-5.27,1.02,39.86
2519,5,1.0906,-0.3477,0.0139,2.50,-11.79,39.88
2530,0,0.5226,0.0326,0.8667,4.81,-40.27,6.02
2530,1,0.7859,-0.5229,0.0991,2.12,-5.01,39.56
2530,2,0.8066,-0.5374,0.1526,-2.56,-5.47,36.17
2530,3,0.7505,-0.5215,0.1843,-2.98,-3.24,36.82
2530,4,0.7583,-0.5393,0.2158,-4.89,-2.81,34.78
2530,5,1.0415,-0.3684,0.0222,2.49,-14.55,34.73
2541,0,0.5325,0.0029,0.8447,6.68,-35.23,3.95
2541,1,0.7549,-0.5244,0.1326,0.56,-4.75,34.26
2541,2,0.7629,-0.5398,0.1602,-3.66,-4.81,31.33
2541,3,0.7297,-0.5232,0.2214,-4.56,-2.14,32.12
2541,4,0.7263,-0.5420,0.2349,-6.47,-1.33,30.55
2541,5,0.9902,-0.3726,0.0535,0.44,-13.04,30.79
2551,0,0.5440,-0.0181,0.7989,5.65,-32.51,1.58
2551,1,0.7681,-0.5403,0.1646,-1.53,-3.45,31.66
2551,2,0.7744,-0.5596,0.1960,-5.50,-2.96,28.63
2551,3,0.7363,-0.5391,0.2434,-6.35,-0.34,29.40
2551,4,0.7346,-0.5649,0.2656,-7.88,0.44,27.62
2551,5,1.0081,-0.3960,0.0828,-0.82,-11.05,27.88
2561,0,0.5707,-0.0510,0.8151,3.97,-29.78,-0.70
2561,1,0.7578,-0.5776,0.1699,-3.02,-2.03,29.11
2561,2,0.7617,-0.5889,0.2104,-7.01,-2.21,25.68
2561,3,0.7358,-0.5662,0.2520,-7.59,0.55,26.67
2561,4,0.7295,-0.5784,0.2695,-8.84,1.07,24.85
2561,5,0.9968,-0.4143,0.0793,-2.00,-10.55,25.18
2572,0,0.5879,-0.0599,0.8062,2.92,-27.88,-2.17
2572,1,0.7507,-0.5945,0.1628,-4.26,-0.89,26.27
2572,2,0.7507,-0.6089,0.2017,-7.65,-0.95,22.85
2572,3,0.7224,-0.5886,0.2441,-8.47,1.36,23.77
2572,4,0.7173,-0.6062,0.2600,-9.63,2.11,21.74
2572,5,0.9878,-0.4392,0.0754,-2.72,-9.25,22.34
2583,0,0.6117,-0.0516,0.8002,2.19,-24.85,-3.76
2583,1,0.7466,-0.6069,0.1638,-5.54,0.46,23.45
2583,2,0.7517,-0.6248,0.1938,-8.70,0.44,20.05
2583,3,0.7258,-0.6045,0.2400,-9.42,2.72,20.84
2583,4,0.7185,-0.6218,0.2598,-10.41,3.16,18.99
2583,5,0.9878,-0.4519,0.0796,-3.57,-8.24,19.36
2593,0,0.6257,-0.0527,0.7947,0.93,-22.98,-5.27
2593,1,0.7576,-0.6213,0.1653,-6.75,1.36,21.33
2593,2,0.7622,-0.6296,0.2034,-9.42,1.37,18.11
2593,3,0.7422,-0.6057,0.2395,-10.53,3.73,18.85
2593,4,0.7339,-0.6226,0.2632,-11.34,4.24,17.37
2593,5,0.9893,-0.4504,0.0706,-4.41,-6.82,18.06
2604,0,0.6301,-0.0483,0.7896,-0.37,-21.84,-6.91
2604,1,0.7629,-0.6199,0.1624,-7.98,3.01,20.92
2604,2,0.7476,-0.6328,0.2009,-10.76,3.18,17.53
2604,3,0.7468,-0.6072,0.2458,-11.91,5.42,18.56
2604,4,0.7302,-0.6204,0.2668,-12.64,6.23,16.73
2604,5,0.9880,-0.4468,0.0745,-5.69,-4.90,17.39
2614,0,0.6276,-0.0588,0.7904,-2.43,-21.47,-8.19
2614,1,0.7681,-0.6157,0.1650,-9.37,5.37,20.18
2614,2,0.7605,-0.6238,0.2061,-11.88,5.16,16.64
2614,3,0.7559,-0.6025,0.2476,-13.08,7.50,17.62
2614,4,0.7432,-0.6174,0.2710,-13.77,8.15,15.42
2614,5,1.0093,-0.4438,0.0767,-7.01,-3.28,16.24
2625,0,0.6204,-0.0486,0.8104,-3.94,-20.39,-9.73
2625,1,0.7822,-0.5991,0.1572,-10.55,6.06,19.22
2625,2,0.7852,-0.6099,0.1990,-12.99,5.69,15.28
2625,3,0.7859,-0.5872,0.2341,-14.38,7.66,16.23
2625,4,0.7734,-0.6003,0.2566,-15.01,8.00,14.15
2625,5,1.0396,-0.4236,0.0725,-8.38,-3.39,15.08
2635,0,0.6065,-0.0329,0.8286,-3.46,-19.44,-11.38
2635,1,0.8064,-0.5793,0.1428,-11.97,4.85,18.11
2635,2,0.8008,-0.5872,0.1755,-14.43,4.26,14.24
2635,3,0.8086,-0.5642,0.2185,-15.92,6.05,15.42
2635,4,0.7988,-0.5818,0.2446,-16.72,6.21,13.31
2635,5,1.0520,-0.4106,0.0427,-10.14,-5.47,14.43
2646,0,0.5850,0.0000,0.8233,-1.14,-19.34,-13.21
2646,1,0.8181,-0.5701,0.1189,-14.41,1.57,18.31
2646,2,0.8103,-0.5881,0.1599,-17.04,0.93,14.40
2646,3,0.8391,-0.5603,0.2085,-18.26,2.21,15.60
2646,4,0.8193,-0.5786,0.2288,-18.96,2.32,13.66
2646,5,1.0701,-0.4065,0.0300,-12.56,-9.44,14.76
2657,0,0.5849,0.0172,0.8341,2.77,-20.00,-15.23
2657,1,0.8403,-0.5720,0.0964,-16.12,-2.20,19.27
2657,2,0.8315,-0.5854,0.1404,-18.76,-2.43,15.11
2657,3,0.8569,-0.5605,0.1814,-19.79,-0.78,16.85
2657,4,0.8352,-0.5793,0.2061,-20.73,-0.47,14.79
2657,5,1.0801,-0.4038,0.0168,-13.91,-11.77,15.98
2667,0,0.5871,0.0238,0.8458,5.41,-20.88,-15.94
2667,1,0.8525,-0.5823,0.0840,-16.75,-3.01,20.78
2667,2,0.8376,-0.5928,0.1394,-19.51,-2.78,16.46
2667,3,0.8577,-0.5710,0.1641,-20.38,-1.10,18.27
2667,4,0.8323,-0.5850,0.1973,-21.01,-0.40,16.27
2667,5,1.0742,-0.4102,0.0120,-14.14,-11.66,17.10
2678,0,0.5985,0.0171,0.8428,5.30,-21.96,-15.77
2678,1,0.8416,-0.5881,0.0818,-16.56,-2.06,22.20
2678,2,0.8269,-0.6006,0.1318,-19.28,-1.80,18.05
2678,3,0.8508,-0.5735,0.1484,-20.00,0.23,19.47
2678,4,0.8210,-0.5872,0.1919,-20.89,0.67,17.51
2678,5,1.0664,-0.4150,0.0081,-13.89,-10.78,18.52
2689,0,0.6000,0.0195,0.8344,4.46,-22.72,-15.78
2689,1,0.8315,-0.5908,0.0740,-16.24,-2.03,23.53
2689,2,0.8247,-0.6057,0.1272,-19.05,-2.49,19.30
2689,3,0.8457,-0.5762,0.1562,-19.94,-0.60,21.05
2689,4,0.8262,-0.5991,0.1897,-20.79,-0.43,18.78
2689,5,1.0710,-0.4272,-0.0010,-13.76,-12.34,19.53
2700,0,0.6056,0.0260,0.8357,6.56,-23.34,-14.35
2700,1,0.8247,-0.6021,0.0684,-15.83,-4.32,24.00
2700,2,0.8196,-0.6157,0.1238,-18.81,-4.49,19.76
2700,3,0.8274,-0.5857,0.1426,-19.28,-2.53,21.36
2700,4,0.8103,-0.6079,0.1812,-20.35,-2.08,19.47
2700,5,1.0591,-0.4324,0.0051,-13.33,-13.57,20.17
2710,0,0.6130,0.0207,0.8301,7.54,-23.85,-13.97
2710,1,0.8096,-0.6099,0.0676,-14.96,-4.02,24.31
2710,2,0.8081,-0.6218,0.1272,-17.77,-3.85,20.03
2710,3,0.8049,-0.5947,0.1384,-18.37,-1.85,21.65
2710,4,0.7905,-0.6101,0.1794,-19.31,-1.30,19.24
2710,5,1.0410,-0.4399,0.0034,-12.44,-12.29,20.14
2721,0,0.6165,0.0215,0.8186,6.21,-23.99,-13.49
2721,1,0.8049,-0.6052,0.0725,-14.58,-2.99,24.05
2721,2,0.8013,-0.6196,0.1223,-17.47,-2.93,19.92
2721,3,0.7988,-0.5955,0.1516,-18.11,-0.72,21.48
2721,4,0.7913,-0.6133,0.1853,-19.39,0.00,19.25
2721,5,1.0408,-0.4395,0.0076,-12.26,-11.36,20.06
2732,0,0.6190,0.0249,0.8147,5.46,-24.24,-13.44
2732,1,0.8091,-0.6155,0.0840,-14.70,-2.29,24.44
2732,2,0.8054,-0.6265,0.1272,-17.82,-2.44,20.29
2732,3,0.8137,-0.6018,0.1589,-18.67,-0.27,21.83
2732,4,0.7979,-0.6216,0.1885,-19.71,0.18,19.66
2732,5,1.0481,-0.4500,-0.0020,-12.44,-11.25,20.47
2743,0,0.6250,0.0254,0.8200,5.04,-24.87,-13.86
2743,1,0.8049,-0.6157,0.0793,-15.33,-2.76,24.43
2743,2,0.7996,-0.6287,0.1257,-18.20,-2.99,20.29
2743,3,0.8037,-0.6033,0.1565,-19.10,-1.15,21.63
2743,4,0.7898,-0.6218,0.1899,-20.11,-0.67,19.51
2743,5,1.0386,-0.4470,-0.0032,-12.99,-12.23,20.26
2752,0,0.6240,0.0322,0.8130,5.86,-25.01,-14.58
2752,1,0.7859,-0.6179,0.0703,-15.97,-4.23,23.97
2752,2,0.7881,-0.6260,0.1116,-18.98,-4.31,19.50
2752,3,0.7825,-0.6064,0.1477,-19.76,-2.70,21.15
2752,4,0.7717,-0.6211,0.1726,-20.55,-2.34,18.72
2752,5,1.0276,-0.4478,-0.0129,-13.65,-14.05,19.48
2763,0,0.6231,0.0409,0.7964,7.56,-24.82,-15.05
2763,1,0.7666,-0.6194,0.0544,-16.21,-5.76,23.24
2763,2,0.7776,-0.6335,0.0952,-19.07,-5.95,18.73
2763,3,0.7661,-0.6150,0.1304,-20.12,-4.35,20.06
2763,4,0.7595,-0.6299,0.1565,-21.02,-3.79,17.71
2763,5,1.0237,-0.4553,-0.0303,-13.76,-15.34,18.32
2774,0,0.6323,0.0464,0.7979,9.01,-23.57,-15.52
2774,1,0.7646,-0.6306,0.0459,-16.09,-6.84,21.27
2774,2,0.7747,-0.6399,0.0920,-18.76,-6.95,17.07
2774,3,0.7534,-0.6125,0.1079,-19.42,-5.10,18.37
2774,4,0.7510,-0.6299,0.1426,-20.21,-4.27,15.74
2774,5,1.0110,-0.4556,-0.0193,-13.05,-15.39,16.37
2785,0,0.6357,0.0404,0.7900,8.93,-22.17,-14.72
2785,1,0.7495,-0.6299,0.0359,-14.96,-5.76,19.36
2785,2,0.7603,-0.6384,0.0869,-17.24,-5.66,14.99
2785,3,0.7385,-0.6135,0.1016,-17.74,-3.92,16.44
2785,4,0.7317,-0.6301,0.1372,-18.15,-3.25,14.06
2785,5,0.9917,-0.4480,-0.0342,-11.34,-14.20,14.64
2795,0,0.6321,0.0345,0.7814,7.30,-19.90,-13.53
2795,1,0.7461,-0.6262,0.0315,-13.02,-4.24,17.37
2795,2,0.7627,-0.6345,0.0874,-15.10,-3.94,13.22
2795,3,0.7390,-0.6106,0.0876,-15.73,-2.12,14.38
2795,4,0.7336,-0.6248,0.1335,-15.95,-1.54,12.15
2795,5,1.0000,-0.4531,-0.0359,-8.98,-12.66,12.75
2806,0,0.6321,0.0382,0.7857,5.79,-17.48,-11.65
2806,1,0.7471,-0.6375,0.0305,-11.07,-3.10,15.05
2806,2,0.7585,-0.6487,0.0818,-12.82,-3.16,11.15
2806,3,0.7346,-0.6277,0.0913,-13.76,-1.21,12.32
2806,4,0.7390,-0.6377,0.1248,-13.71,-0.89,10.18
2806,5,1.0007,-0.4600,-0.0439,-6.99,-11.92,10.44
2817,0,0.6434,0.0438,0.7868,5.09,-15.45,-10.50
2817,1,0.7485,-0.6328,0.0266,-9.19,-2.85,12.47
2817,2,0.7646,-0.6455,0.0815,-10.87,-2.69,8.78
2817,3,0.7393,-0.6160,0.0806,-11.56,-0.99,9.79
2817,4,0.7371,-0.6335,0.1252,-11.39,-0.46,7.83
2817,5,1.0020,-0.4595,-0.0457,-4.40,-11.30,8.38
2828,0,0.6388,0.0444,0.7849,4.34,-12.65,-8.45
2828,1,0.7490,-0.6394,0.0215,-6.89,-1.66,10.37
2828,2,0.7581,-0.6497,0.0789,-8.18,-1.39,6.92
2828,3,0.7454,-0.6233,0.0820,-8.78,0.27,7.98
2828,4,0.7380,-0.6423,0.1294,-8.63,0.89,6.29
2828,5,0.9978,-0.4668,-0.0400,-2.34,-9.92,6.92
2838,0,0.6454,0.0449,0.7825,2.94,-10.85,-6.30
2838,1,0.7529,-0.6370,0.0271,-4.92,-0.63,8.53
2838,2,0.7666,-0.6479,0.0818,-6.14,-0.53,5.44
2838,3,0.7522,-0.6248,0.0857,-7.19,0.89,6.11
2838,4,0.7480,-0.6379,0.1270,-6.67,1.22,4.64
2838,5,1.0112,-0.4602,-0.0442,-0.32,-9.66,5.24
2848,0,0.6418,0.0536,0.7882,2.89,-8.89,-5.07
2848,1,0.7556,-0.6367,0.0215,-3.39,-1.16,6.67
2848,2,0.7625,-0.6416,0.0769,-4.40,-1.11,3.71
2848,3,0.7510,-0.6228,0.0854,-5.50,0.24,4.63
2848,4,0.7498,-0.6414,0.1257,-5.05,0.61,3.10
2848,5,1.0100,-0.4587,-0.0461,1.62,-10.40,3.59
2859,0,0.6420,0.0487,0.7890,3.22,-7.18,-3.55
2859,1,0.7515,-0.6418,0.0298,-1.56,-1.02,4.64
2859,2,0.7681,-0.6533,0.0867,-2.58,-0.82,2.03
2859,3,0.7434,-0.6284,0.0854,-3.31,0.70,2.55
2859,4,0.7444,-0.6431,0.1348,-2.92,1.21,1.16
2859,5,1.0024,-0.4690,-0.0330,3.62,-9.44,1.79
2870,0,0.6488,0.0378,0.7889,2.15,-4.69,-2.05
2870,1,0.7505,-0.6436,0.0349,0.21,0.08,2.61
2870,2,0.7588,-0.6550,0.0947,-0.50,0.37,0.18
2870,3,0.7424,-0.6301,0.1025,-1.33,2.15,0.96
2870,4,0.7405,-0.6450,0.1370,-0.78,2.72,-0.49
2870,5,0.9954,-0.4678,-0.0334,5.31,-7.69,-0.11
2879,0,0.6492,0.0388,0.7859,0.47,-2.94,-0.84
2879,1,0.7607,-0.6406,0.0378,1.33,2.90,1.05
2879,2,0.7729,-0.6550,0.0881,0.87,2.99,-1.15
2879,3,0.7563,-0.6301,0.1035,-0.37,4.87,-0.67
2879,4,0.7544,-0.6465,0.1394,0.37,5.54,-1.71
2879,5,1.0129,-0.4644,-0.0298,6.61,-4.82,-0.96
2890,0,0.6478,0.0464,0.7919,-2.22,-1.70,-0.14
2890,1,0.7754,-0.6440,0.0425,2.18,4.55,0.26
2890,2,0.7795,-0.6580,0.0908,1.79,4.18,-1.73
2890,3,0.7808,-0.6313,0.1145,0.37,5.24,-1.40
2890,4,0.7781,-0.6543,0.1521,1.15,5.36,-2.41
2890,5,1.0359,-0.4717,-0.0327,7.19,-5.98,-1.95
2901,0,0.6521,0.0540,0.8084,-1.05,-0.81,0.07
2901,1,0.7710,-0.6465,0.0413,2.46,1.45,-1.28
2901,2,0.7830,-0.6602,0.0918,2.11,0.72,-3.31
2901,3,0.7690,-0.6372,0.1145,0.84,1.53,-3.02
2901,4,0.7683,-0.6558,0.1492,1.76,1.69,-4.06
2901,5,1.0291,-0.4805,-0.0308,7.69,-9.15,-3.73
2911,0,0.6528,0.0560,0.8063,2.31,1.50,0.46
2911,1,0.7578,-0.6494,0.0342,3.19,-1.63,-3.85
2911,2,0.7737,-0.6558,0.0862,2.95,-1.65,-5.91
2911,3,0.7400,-0.6323,0.0991,1.89,-0.61,-5.68
2911,4,0.7393,-0.6499,0.1335,3.22,-0.14,-6.90
2911,5,1.0059,-0.4653,-0.0481,8.98,-10.52,-6.67
2921,0,0.6483,0.0505,0.7907,3.33,4.04,1.10
2921,1,0.7439,-0.6433,0.0178,4.90,-0.18,-6.90
2921,2,0.7620,-0.6538,0.0745,5.16,0.03,-8.84
2921,3,0.7209,-0.6252,0.0691,4.06,1.45,-8.53
2921,4,0.7212,-0.6409,0.1184,5.80,2.21,-9.73
2921,5,0.9885,-0.4651,-0.0422,11.85,-8.06,-9.36
2932,0,0.6454,0.0418,0.7847,1.12,7.96,3.24
2932,1,0.7258,-0.6470,0.0195,7.80,2.41,-10.75
2932,2,0.7507,-0.6545,0.0828,8.40,2.44,-12.32
2932,3,0.6943,-0.6206,0.0720,7.39,3.56,-12.82
2932,4,0.7109,-0.6296,0.1233,9.50,3.86,-13.57
2932,5,0.9924,-0.4512,-0.0264,15.59,-6.64,-13.45
2943,0,0.6331,0.0163,0.8032,-0.28,12.53,6.70
2943,1,0.7209,-0.6184,0.0303,11.85,2.46,-16.37
2943,2,0.7529,-0.6277,0.0945,13.31,2.63,-17.76
2943,3,0.6838,-0.5996,0.0710,12.12,3.65,-18.31
2943,4,0.7036,-0.6118,0.1221,14.60,3.98,-19.04
2943,5,0.9844,-0.4380,-0.0376,20.49,-5.88,-19.16
2954,0,0.6155,0.0296,0.8000,-2.45,19.58,9.35
2954,1,0.7317,-0.6155,0.0159,16.09,8.43,-22.29
2954,2,0.7529,-0.6304,0.0981,18.24,9.56,-23.30
2954,3,0.6738,-0.5942,0.0583,17.07,10.64,-23.88
2954,4,0.6975,-0.6074,0.1206,20.14,11.37,-24.46
2954,5,0.9658,-0.4368,-0.0156,25.94,1.63,-24.31
2964,0,0.6170,0.0001,0.7851,-8.80,25.04,13.51
2964,1,0.7234,-0.6292,0.0686,19.48,13.48,-27.04
2964,2,0.7332,-0.6467,0.1167,21.63,14.09,-27.19
2964,3,0.7107,-0.6199,0.1411,19.69,15.66,-27.82
2964,4,0.7117,-0.6421,0.1716,22.34,16.09,-27.59
2964,5,0.9768,-0.4697,0.0110,27.65,5.92,-27.04
2975,0,0.6479,0.0011,0.7880,-12.85,28.05,13.82
2975,1,0.7778,-0.6394,0.0991,20.15,14.61,-28.81
2975,2,0.7915,-0.6504,0.1453,22.56,14.69,-28.76
2975,3,0.7627,-0.6245,0.1572,20.53,15.16,-29.86
2975,4,0.7600,-0.6414,0.2007,23.51,15.15,-29.73
2975,5,1.0261,-0.4646,0.0244,28.63,5.60,-29.22
2986,0,0.6448,-0.0093,0.8305,-12.39,30.73,14.51
2986,1,0.7852,-0.6482,0.1030,21.25,13.57,-31.71
2986,2,0.8037,-0.6611,0.1423,23.65,13.66,-31.40
2986,3,0.7812,-0.6362,0.1790,21.44,13.51,-32.50
2986,4,0.7869,-0.6511,0.2078,24.66,13.22,-32.50
2986,5,1.0642,-0.4722,0.0295,29.45,3.39,-31.89
2997,0,0.6515,0.0085,0.8633,-9.96,33.53,14.61
2997,1,0.8062,-0.6235,0.0862,22.05,10.23,-35.27
2997,2,0.8145,-0.6279,0.1450,25.08,9.77,-35.08
2997,3,0.8057,-0.5864,0.1418,23.44,9.27,-35.79
2997,4,0.8008,-0.5950,0.1870,26.93,8.49,-35.24
2997,5,1.0676,-0.4204,0.0256,32.23,-1.51,-35.19
3007,0,0.6029,-0.0050,0.8581,-5.41,37.15,17.31
3007,1,0.7964,-0.5955,0.0522,25.21,7.30,-38.12
3007,2,0.8167,-0.6101,0.1187,28.69,7.24,-37.63
3007,3,0.7815,-0.5742,0.1106,26.72,7.53,-38.37
3007,4,0.7847,-0.5920,0.1550,30.40,7.47,-37.85
3007,5,1.0500,-0.4143,-0.0093,34.96,-1.80,-37.80
3018,0,0.5624,0.0377,0.8436,-5.11,40.15,19.37
3018,1,0.7874,-0.5698,0.0474,27.21,7.54,-41.31
3018,2,0.7986,-0.5850,0.1018,30.73,7.51,-40.43
3018,3,0.7795,-0.5525,0.1067,28.82,8.34,-41.18
3018,4,0.7725,-0.5698,0.1521,32.63,8.41,-40.11
3018,5,1.0381,-0.4009,-0.0068,37.39,-1.01,-40.08
3028,0,0.5791,0.0294,0.8186,-6.61,42.84,20.84
3028,1,0.7864,-0.5771,0.0681,29.37,9.31,-42.14
3028,2,0.7751,-0.5898,0.1431,33.11,8.96,-40.76
3028,3,0.8010,-0.5530,0.1414,31.19,9.08,-41.33
3028,4,0.7734,-0.5779,0.1926,35.19,8.89,-39.85
3028,5,1.0242,-0.4119,0.0273,40.20,-0.44,-39.65
3039,0,0.5961,-0.0188,0.8000,-6.88,42.47,23.80
3039,1,0.8044,-0.5994,0.1045,31.76,8.03,-41.13
3039,2,0.7991,-0.6113,0.1709,35.18,6.15,-39.56
3039,3,0.8367,-0.5620,0.2131,33.19,5.31,-39.98
3039,4,0.8110,-0.5828,0.2581,36.85,2.87,-38.40
3039,5,1.0691,-0.4182,0.0742,41.30,-8.11,-38.32
3049,0,0.6032,-0.0298,0.8329,1.54,41.93,25.22
3049,1,0.8396,-0.6013,0.1465,32.61,-3.85,-41.21
3049,2,0.8650,-0.6047,0.2024,35.85,-6.08,-39.85
3049,3,0.8799,-0.5708,0.2329,34.18,-6.82,-40.23
3049,4,0.8630,-0.6006,0.2637,37.39,-7.68,-38.99
3049,5,1.1370,-0.4360,0.0757,41.88,-17.65,-39.77
3060,0,0.6044,-0.0150,0.9221,10.53,44.08,25.44
3060,1,0.8921,-0.6023,0.1458,32.35,-10.75,-43.66
3060,2,0.9114,-0.6211,0.1804,35.60,-11.59,-43.01
3060,3,0.8872,-0.5935,0.2290,33.36,-11.42,-43.07
3060,4,0.8940,-0.6235,0.2439,36.76,-11.66,-42.15
3060,5,1.1746,-0.4575,0.0461,40.67,-21.16,-43.45
3071,0,0.6181,0.0495,0.9720,14.49,46.94,22.36
3071,1,0.9167,-0.6179,0.1057,29.19,-13.65,-47.89
3071,2,0.9370,-0.6331,0.1506,32.61,-15.18,-47.53
3071,3,0.9214,-0.6074,0.2190,30.11,-16.41,-47.95
3071,4,0.9351,-0.6284,0.2268,33.65,-18.02,-47.13
3071,5,1.2161,-0.4666,0.0178,37.24,-27.54,-48.78
3082,0,0.6231,0.0891,0.9989,21.75,51.13,18.62
3082,1,0.9348,-0.6028,0.0894,25.86,-22.47,-52.98
3082,2,0.9619,-0.6208,0.1482,30.02,-23.86,-52.64
3082,3,0.9558,-0.5847,0.1868,27.88,-25.65,-52.61
3082,4,0.9636,-0.5989,0.2231,31.94,-27.39,-51.76
3082,5,1.2385,-0.4285,0.0242,35.79,-37.15,-53.24
3093,0,0.5990,0.0605,1.0119,34.88,55.46,16.27
3093,1,0.9597,-0.5913,0.0830,24.98,-34.09,-57.16
3093,2,0.9824,-0.6091,0.1516,29.80,-35.39,-57.04
3093,3,0.9753,-0.5759,0.1721,27.79,-37.53,-56.50
3093,4,0.9832,-0.6003,0.2295,32.38,-39.82,-55.53
3093,5,1.2708,-0.4304,0.0352,35.98,-49.53,-58.29
3104,0,0.6004,0.0517,1.0498,43.68,59.27,16.07
3104,1,0.9841,-0.5845,0.0757,26.03,-44.87,-62.66
3104,2,1.0205,-0.5974,0.1572,31.28,-45.95,-62.76
3104,3,0.9822,-0.5522,0.1543,29.66,-47.59,-62.03
3104,4,1.0042,-0.5732,0.2263,34.67,-49.16,-61.36
3104,5,1.3052,-0.4004,0.0752,38.67,-58.41,-64.26
3115,0,0.5702,0.0234,1.1192,53.48,66.59,17.55
3115,1,1.0015,-0.5513,0.1077,28.82,-54.73,-71.02
3115,2,1.0503,-0.5684,0.2148,34.92,-55.91,-71.05
3115,3,0.9771,-0.5232,0.1821,33.57,-57.98,-70.64
3115,4,1.0095,-0.5413,0.2593,39.30,-60.02,-69.86
3115,5,1.3279,-0.3809,0.1050,42.76,-69.25,-74.02
3125,0,0.5444,-0.0029,1.1502,62.97,78.08,19.39
3125,1,0.9827,-0.5442,0.1101,31.47,-66.47,-82.61
3125,2,1.0459,-0.5652,0.2004,38.35,-67.31,-83.07
3125,3,0.9470,-0.5271,0.1985,36.56,-70.03,-82.47
3125,4,0.9988,-0.5618,0.2537,42.47,-72.05,-81.68
3125,5,1.3291,-0.4006,0.0757,45.01,-80.99,-86.66
3136,0,0.5567,0.0403,1.1480,76.44,88.90,18.43
3136,1,0.9802,-0.5417,0.1052,31.19,-79.50,-95.63
3136,2,1.0447,-0.5688,0.1814,39.11,-79.88,-95.73
3136,3,0.9573,-0.5327,0.1760,37.04,-83.10,-94.58
3136,4,1.0015,-0.5605,0.2415,43.85,-84.92,-93.53
3136,5,1.3049,-0.3931,0.0559,46.03,-92.67,-98.84
3147,0,0.5660,0.0598,1.1148,87.97,100.08,16.15
3147,1,0.9944,-0.5527,0.0613,30.20,-87.59,-105.54
3147,2,1.0317,-0.5791,0.1467,38.64,-87.80,-105.18
3147,3,0.9800,-0.5273,0.1558,36.29,-91.10,-103.24
3147,4,0.9956,-0.5615,0.2131,43.66,-92.67,-101.48
3147,5,1.2610,-0.3931,0.0068,45.27,-99.02,-105.95
3158,0,0.5613,0.0758,1.0438,93.50,106.54,14.44
3158,1,0.9761,-0.5181,0.0271,29.48,-89.98,-109.98
3158,2,0.9797,-0.5366,0.1094,38.78,-89.13,-108.90
3158,3,0.9563,-0.4873,0.1016,36.47,-91.86,-106.67
3158,4,0.9460,-0.5115,0.1504,43.89,-92.37,-104.34
3158,5,1.1985,-0.3481,-0.0288,45.68,-98.18,-108.73
3168,0,0.5257,0.0928,0.9677,92.36,108.57,14.02
3168,1,0.9255,-0.4624,-0.0056,29.62,-87.48,-112.20
3168,2,0.9272,-0.4817,0.0652,38.93,-85.95,-110.99
3168,3,0.8987,-0.4321,0.0703,36.32,-88.26,-108.66
3168,4,0.8892,-0.4529,0.1150,44.03,-88.50,-106.47
3168,5,1.1333,-0.2839,-0.0532,45.24,-94.17,-110.47
3179,0,0.4634,0.1085,0.9012,88.18,110.13,13.06
3179,1,0.8755,-0.4072,0.0122,28.66,-83.73,-113.33
3179,2,0.8748,-0.4309,0.0876,38.31,-82.44,-112.23
3179,3,0.8660,-0.3794,0.0852,35.79,-83.83,-109.63
3179,4,0.8545,-0.4011,0.1396,43.10,-83.79,-107.18
3179,5,1.0933,-0.2361,-0.0225,44.49,-89.42,-110.44
3190,0,0.4178,0.0501,0.8606,84.23,109.99,12.41
3190,1,0.8674,-0.3821,0.0647,28.31,-80.95,-112.53
3190,2,0.8616,-0.4128,0.1272,37.68,-80.29,-111.34
3190,3,0.8721,-0.3650,0.1367,35.08,-82.32,-109.15
3190,4,0.8438,-0.3953,0.1790,42.46,-82.90,-106.61
3190,5,1.1074,-0.2434,0.0164,43.95,-89.27,-110.55
3201,0,0.4216,0.0357,0.8832,83.84,109.81,11.83
3201,1,0.8899,-0.3884,0.0696,27.18,-79.74,-112.67
3201,2,0.8777,-0.4097,0.1223,36.61,-79.18,-111.36
3201,3,0.9055,-0.3621,0.1455,33.77,-81.21,-108.79
3201,4,0.8743,-0.3943,0.1851,41.16,-81.97,-106.64
3201,5,1.1243,-0.2366,0.0088,42.53,-88.34,-109.97
3211,0,0.4161,0.0415,0.8818,82.83,108.41,10.31
3211,1,0.9211,-0.3743,0.0657,25.74,-78.79,-110.76
3211,2,0.9043,-0.3982,0.1226,35.28,-77.95,-109.60
3211,3,0.9438,-0.3535,0.1282,32.55,-79.74,-106.89
3211,4,0.9036,-0.3818,0.1731,39.89,-80.17,-104.27
3211,5,1.1494,-0.2139,-0.0027,41.19,-86.67,-107.54
3222,0,0.3987,0.0558,0.8911,81.60,106.12,9.62
3222,1,0.9299,-0.3596,0.0581,24.50,-79.47,-107.22
3222,2,0.9087,-0.3811,0.1094,33.28,-79.19,-106.27
3222,3,0.9719,-0.3401,0.1433,30.43,-81.97,-103.11
3222,4,0.9417,-0.3677,0.1755,37.39,-83.11,-100.87
3222,5,1.1729,-0.2090,-0.0149,38.46,-90.21,-104.21
3234,0,0.3810,0.0894,0.9150,85.59,102.13,8.00
3234,1,0.9622,-0.3281,0.0281,21.66,-85.10,-103.86
3234,2,0.9468,-0.3481,0.0793,29.80,-85.56,-103.10
3234,3,1.0256,-0.3069,0.1296,27.07,-88.98,-99.69
3234,4,0.9905,-0.3325,0.1565,33.37,-91.07,-97.40
3234,5,1.2273,-0.1660,-0.0381,35.05,-98.96,-100.93
3245,0,0.3377,0.1374,0.9167,93.43,96.88,4.92
3245,1,0.9951,-0.2939,0.0181,17.44,-96.29,-98.85
3245,2,0.9651,-0.3184,0.0681,24.66,-97.50,-97.97
3245,3,1.0784,-0.2893,0.1470,22.17,-101.08,-94.02
3245,4,1.0393,-0.3142,0.1714,27.68,-103.48,-91.63
3245,5,1.2527,-0.1545,-0.0283,29.21,-112.11,-95.05
3255,0,0.3195,0.1446,0.9379,108.01,91.05,0.10
3255,1,1.0193,-0.2871,0.0403,11.94,-110.81,-92.75
3255,2,1.0005,-0.3125,0.0911,18.50,-111.85,-93.10
3255,3,1.0872,-0.2854,0.1641,16.37,-115.73,-88.55
3255,4,1.0515,-0.3083,0.1992,21.62,-117.62,-86.96
3255,5,1.2837,-0.1445,0.0039,23.24,-126.11,-91.16
3266,0,0.3122,0.1188,0.9837,123.13,85.22,-3.27
3266,1,1.0320,-0.2910,0.0557,7.48,-125.28,-88.61
3266,2,1.0156,-0.3123,0.1101,13.60,-126.35,-89.76
3266,3,1.0923,-0.2849,0.1550,12.05,-130.00,-84.61
3266,4,1.0583,-0.3110,0.1853,17.02,-131.57,-83.27
3266,5,1.2822,-0.1423,-0.0127,18.99,-140.00,-88.02
3277,0,0.3082,0.1347,0.9888,134.87,80.71,-6.97
3277,1,1.0181,-0.2781,-0.0022,3.51,-135.01,-84.96
3277,2,1.0032,-0.2993,0.0552,9.39,-134.75,-86.64
3277,3,1.0444,-0.2717,0.0947,7.86,-137.48,-81.19
3277,4,1.0112,-0.2915,0.1240,12.49,-138.27,-80.08
3277,5,1.2434,-0.1194,-0.0720,14.64,-145.45,-85.10
3288,0,0.2888,0.1695,0.9549,140.89,77.56,-9.71
3288,1,0.9778,-0.2576,-0.0471,0.35,-138.75,-82.56
3288,2,0.9771,-0.2742,0.0164,6.49,-137.73,-84.61
3288,3,0.9907,-0.2432,0.0266,5.33,-139.89,-79.11
3288,4,0.9697,-0.2603,0.0630,10.24,-139.83,-78.40
3288,5,1.1970,-0.0911,-0.1096,12.61,-145.92,-83.33
3298,0,0.2594,0.1853,0.9324,140.02,75.46,-11.02
3298,1,0.9631,-0.2354,-0.1143,-0.21,-132.81,-80.76
3298,2,0.9666,-0.2512,-0.0425,5.80,-130.58,-82.73
3298,3,0.9395,-0.2268,-0.0645,4.75,-131.19,-77.48
3298,4,0.9299,-0.2422,-0.0154,9.60,-129.89,-76.63
3298,5,1.1516,-0.0681,-0.1787,12.09,-135.74,-81.07
3309,0,0.2438,0.2372,0.8744,130.87,73.66,-10.97
3309,1,0.9094,-0.2200,-0.1704,-0.46,-123.91,-78.03
3309,2,0.9119,-0.2322,-0.1101,5.13,-121.95,-80.05
3309,3,0.9082,-0.2090,-0.1099,3.80,-122.85,-75.10
3309,4,0.8899,-0.2324,-0.0742,8.55,-122.14,-74.38
3309,5,1.1204,-0.0574,-0.2551,11.48,-127.73,-78.73
3320,0,0.2303,0.2891,0.8344,121.87,71.01,-11.73
3320,1,0.9048,-0.2041,-0.2102,-1.74,-113.36,-75.45
3320,2,0.9155,-0.2163,-0.1484,3.89,-111.69,-77.83
3320,3,0.9209,-0.1917,-0.1333,2.35,-112.44,-72.90
3320,4,0.9180,-0.2156,-0.0869,6.93,-111.95,-72.09
3320,5,1.1409,-0.0327,-0.2493,9.80,-119.18,-76.12
3331,0,0.2098,0.3063,0.8290,114.54,67.81,-12.86
3331,1,0.9192,-0.1841,-0.1938,-3.15,-112.56,-71.89
3331,2,0.9260,-0.2019,-0.1379,1.86,-112.67,-74.15
3331,3,0.9836,-0.1846,-0.0969,0.35,-115.02,-69.15
3331,4,0.9778,-0.2051,-0.0566,4.41,-116.72,-68.58
3331,5,1.2119,-0.0293,-0.2390,7.07,-125.77,-72.76
3341,0,0.1995,0.3327,0.8727,121.21,64.71,-15.23
3341,1,0.9482,-0.1758,-0.1882,-6.41,-122.72,-69.18
3341,2,0.9719,-0.1946,-0.1331,-1.51,-123.04,-72.43
3341,3,0.9963,-0.1790,-0.0903,-2.89,-125.83,-66.99
3341,4,0.9983,-0.1973,-0.0588,1.04,-127.04,-67.11
3341,5,1.2405,-0.0239,-0.2405,3.62,-135.10,-71.79
3352,0,0.1903,0.3373,0.9157,131.32,62.62,-17.48
3352,1,0.9604,-0.1748,-0.2026,-9.16,-130.53,-68.32
3352,2,0.9878,-0.1970,-0.1479,-4.66,-130.12,-71.60
3352,3,1.0090,-0.1755,-0.1172,-5.89,-132.31,-65.97
3352,4,1.0100,-0.1973,-0.0803,-2.23,-133.24,-66.00
3352,5,1.2422,-0.0178,-0.2747,0.46,-140.72,-70.61
3363,0,0.1909,0.3672,0.9152,136.10,60.46,-20.25
3363,1,0.9958,-0.1721,-0.2544,-11.95,-133.95,-65.91
3363,2,1.0146,-0.1868,-0.1973,-7.71,-133.36,-69.39
3363,3,1.0442,-0.1736,-0.1653,-8.81,-135.53,-63.28
3363,4,1.0403,-0.1931,-0.1301,-5.04,-136.32,-63.45
3363,5,1.2537,-0.0142,-0.3179,-2.44,-143.74,-67.69
3374,0,0.1857,0.4176,0.9078,139.37,57.22,-22.65
3374,1,0.9817,-0.1682,-0.2888,-14.93,-138.11,-63.08
3374,2,1.0159,-0.1853,-0.2358,-10.85,-137.36,-67.05
3374,3,1.0198,-0.1753,-0.1987,-12.08,-139.74,-60.87
3374,4,1.0232,-0.2041,-0.1653,-8.69,-140.20,-61.45
3374,5,1.2659,-0.0193,-0.3499,-5.48,-147.85,-66.32
3385,0,0.1886,0.4519,0.9302,143.92,55.23,-25.31
3385,1,0.9658,-0.1746,-0.3228,-18.14,-142.66,-63.10
3385,2,1.0225,-0.1912,-0.2593,-13.92,-141.88,-68.02
3385,3,0.9741,-0.1794,-0.2341,-15.07,-144.14,-62.21
3385,4,0.9976,-0.2004,-0.1909,-11.53,-144.40,-63.25
3385,5,1.2559,-0.0181,-0.3728,-8.87,-151.71,-68.98
3396,0,0.1793,0.4748,0.9327,147.26,57.12,-28.86
3396,1,0.8984,-0.1509,-0.3228,-20.99,-143.92,-65.85
3396,2,0.9893,-0.1479,-0.2820,-16.76,-141.71,-71.08
3396,3,0.9380,-0.1382,-0.2078,-17.60,-145.15,-65.02
3396,4,0.9607,-0.1692,-0.1562,-13.77,-146.31,-66.15
3396,5,1.1809,0.0205,-0.3904,-11.01,-151.95,-71.63
3407,0,0.1523,0.4543,0.8701,145.55,58.69,-31.24
3407,1,0.8789,-0.0994,-0.3435,-21.97,-136.63,-66.98
3407,2,0.9167,-0.1191,-0.2559,-17.16,-135.91,-71.97
3407,3,0.8926,-0.0898,-0.2969,-17.76,-137.10,-65.79
3407,4,0.8994,-0.1011,-0.2554,-13.27,-135.98,-66.43
3407,5,1.1172,0.0933,-0.4128,-9.85,-141.89,-70.72
3417,0,0.0959,0.4337,0.7807,135.92,57.99,-29.70
3417,1,0.8513,-0.0613,-0.3982,-18.99,-129.83,-64.63
3417,2,0.8713,-0.0798,-0.3091,-13.86,-128.55,-68.73
3417,3,0.8875,-0.0496,-0.3655,-14.31,-129.91,-62.46
3417,4,0.8882,-0.0732,-0.3049,-10.00,-129.48,-62.58
3417,5,1.0911,0.1201,-0.4512,-6.34,-136.32,-66.27
3428,0,0.0677,0.4649,0.7216,131.53,53.97,-25.20
3428,1,0.8352,-0.0447,-0.4475,-16.06,-125.85,-58.89
3428,2,0.8491,-0.0527,-0.3818,-12.14,-124.23,-62.21
3428,3,0.9021,-0.0386,-0.4021,-12.63,-125.01,-55.66
3428,4,0.8850,-0.0571,-0.3511,-9.28,-124.38,-55.42
3428,5,1.0640,0.1309,-0.5161,-5.97,-131.82,-58.46
3439,0,0.0565,0.5379,0.6527,126.58,47.34,-23.22
3439,1,0.8486,-0.0320,-0.4871,-15.62,-120.96,-48.84
3439,2,0.8350,-0.0442,-0.4351,-12.63,-119.53,-51.80
3439,3,0.9456,-0.0264,-0.4302,-13.15,-120.20,-45.30
3439,4,0.9114,-0.0466,-0.3867,-10.70,-119.95,-44.27
3439,5,1.0762,0.1467,-0.5527,-6.56,-128.23,-47.07
3450,0,0.0447,0.5662,0.6426,123.03,35.74,-21.09
3450,1,0.8501,-0.0259,-0.5125,-15.02,-120.14,-38.15
3450,2,0.8643,-0.0320,-0.4524,-12.84,-119.24,-41.71
3450,3,0.9250,-0.0225,-0.4587,-13.24,-119.88,-35.36
3450,4,0.9182,-0.0471,-0.4111,-11.21,-119.40,-35.51
3450,5,1.1250,0.1511,-0.5720,-6.92,-128.08,-38.79
3460,0,0.0344,0.6112,0.7131,122.73,28.35,-19.67
3460,1,0.8518,-0.0227,-0.5398,-14.95,-118.72,-32.96
3460,2,0.8994,-0.0266,-0.4919,-13.68,-117.59,-36.89
3460,3,0.9080,-0.0186,-0.4763,-14.14,-117.98,-30.90
3460,4,0.9209,-0.0420,-0.4365,-12.26,-117.48,-31.65
3460,5,1.1387,0.1519,-0.6123,-7.91,-125.79,-35.13
3471,0,0.0264,0.6579,0.7331,120.10,25.36,-19.88
3471,1,0.8582,-0.0134,-0.5627,-15.94,-116.78,-29.66
3471,2,0.9092,-0.0269,-0.5146,-15.10,-116.18,-33.86
3471,3,0.9124,-0.0239,-0.4980,-15.18,-116.49,-28.20
3471,4,0.9280,-0.0530,-0.4604,-13.65,-116.20,-29.08
3471,5,1.1501,0.1406,-0.6348,-9.25,-125.16,-32.95
3482,0,0.0431,0.6806,0.7475,119.21,23.12,-20.18
3482,1,0.8398,-0.0581,-0.5986,-15.54,-117.36,-28.84
3482,2,0.8999,-0.0728,-0.5332,-14.09,-117.59,-33.10
3482,3,0.8916,-0.0623,-0.5610,-14.02,-118.15,-27.63
3482,4,0.9250,-0.0830,-0.5295,-12.23,-116.90,-28.63
3482,5,1.1467,0.1138,-0.7036,-7.02,-124.60,-32.43
3493,0,0.0654,0.7326,0.7438,119.09,23.20,-17.97
3493,1,0.8503,-0.0320,-0.6863,-13.59,-113.15,-27.33
3493,2,0.9272,-0.0344,-0.6282,-12.70,-110.72,-31.39
3493,3,0.8892,-0.0300,-0.6372,-13.02,-109.68,-25.95
3493,4,0.9158,-0.0527,-0.5862,-11.51,-107.22,-26.84
3493,5,1.1416,0.1479,-0.7422,-6.64,-115.08,-30.20
3504,0,0.0299,0.7841,0.7327,109.34,21.45,-18.18
3504,1,0.8130,-0.0083,-0.6245,-15.50,-107.45,-27.08
3504,2,0.8848,-0.0181,-0.5850,-14.90,-106.44,-31.50
3504,3,0.8418,-0.0242,-0.5483,-15.48,-106.34,-26.55
3504,4,0.8716,-0.0481,-0.5291,-14.32,-105.36,-27.50
3504,5,1.0969,0.1550,-0.7122,-9.91,-113.30,-31.11
3515,0,0.0163,0.7580,0.6886,103.62,21.03,-21.59
3515,1,0.7854,-0.0056,-0.6470,-18.53,-102.12,-26.14
3515,2,0.8489,-0.0176,-0.5999,-17.39,-100.84,-30.49
3515,3,0.8293,-0.0222,-0.5857,-18.20,-101.21,-25.27
3515,4,0.8503,-0.0400,-0.5552,-16.69,-100.29,-26.21
3515,5,1.0549,0.1643,-0.7266,-11.59,-108.70,-28.92
3526,0,0.0220,0.7354,0.6285,102.78,18.85,-22.14
3526,1,0.7485,-0.0059,-0.6775,-18.17,-97.22,-22.85
3526,2,0.8076,-0.0110,-0.6184,-17.21,-95.77,-27.16
3526,3,0.7959,-0.0020,-0.6382,-17.33,-95.28,-22.15
3526,4,0.8125,-0.0208,-0.5889,-15.85,-94.24,-22.92
3526,5,1.0239,0.1855,-0.7437,-10.75,-102.41,-25.77
3537,0,0.0016,0.7394,0.6001,95.99,15.94,-20.44
3537,1,0.7290,0.0310,-0.6943,-16.41,-90.17,-20.34
3537,2,0.8042,0.0227,-0.6389,-15.63,-88.53,-24.47
3537,3,0.7686,0.0249,-0.6565,-15.83,-87.47,-19.97
3537,4,0.8069,0.0063,-0.6045,-14.47,-86.38,-21.13
3537,5,1.0269,0.2070,-0.7532,-9.16,-94.69,-24.24
3547,0,-0.0245,0.7479,0.6212,89.11,15.31,-18.90
3547,1,0.7185,0.0281,-0.6770,-15.11,-82.95,-20.37
3547,2,0.7964,0.0151,-0.6233,-14.29,-81.40,-24.78
3547,3,0.7437,0.0139,-0.6301,-14.84,-80.67,-20.55
3547,4,0.7893,-0.0139,-0.5869,-13.57,-79.48,-21.91
3547,5,1.0227,0.1853,-0.7476,-8.52,-88.37,-24.70
3558,0,-0.0073,0.7515,0.6090,82.55,15.98,-18.58
3558,1,0.7029,0.0078,-0.6689,-15.31,-79.54,-20.47
3558,2,0.7800,0.0000,-0.6328,-14.70,-79.13,-24.95
3558,3,0.7554,-0.0107,-0.6157,-15.65,-78.82,-20.72
3558,4,0.8003,-0.0396,-0.5835,-14.40,-78.70,-21.92
3558,5,1.0146,0.1641,-0.7546,-9.68,-88.34,-24.24
3569,0,0.0146,0.7743,0.5813,82.37,15.05,-19.90
3569,1,0.6973,-0.0095,-0.6836,-17.44,-79.74,-19.28
3569,2,0.7678,-0.0181,-0.6580,-17.30,-79.05,-23.66
3569,3,0.7476,-0.0308,-0.6272,-18.03,-78.96,-19.51
3569,4,0.7820,-0.0532,-0.6060,-17.10,-78.18,-20.81
3569,5,0.9973,0.1445,-0.7905,-12.02,-86.82,-23.10
3580,0,0.0310,0.8012,0.5678,81.25,13.49,-22.24
3580,1,0.6782,-0.0120,-0.7180,-19.40,-75.63,-18.89
3580,2,0.7686,-0.0176,-0.6833,-18.84,-74.21,-23.39
3580,3,0.7065,-0.0166,-0.6895,-19.40,-73.48,-19.60
3580,4,0.7507,-0.0396,-0.6570,-18.23,-72.31,-21.40
3580,5,0.9783,0.1697,-0.8247,-13.01,-80.72,-23.36
3590,0,0.0161,0.8058,0.5613,74.17,14.12,-22.66
3590,1,0.6470,0.0149,-0.7622,-18.21,-67.71,-19.86
3590,2,0.7292,0.0159,-0.7046,-17.15,-65.77,-24.08
3590,3,0.6641,0.0249,-0.7485,-17.39,-64.53,-20.89
3590,4,0.7085,0.0022,-0.6921,-15.56,-62.93,-22.34
3590,5,0.9270,0.2148,-0.8291,-10.15,-70.90,-23.92
3601,0,-0.0231,0.7774,0.5124,63.10,15.30,-19.55
3601,1,0.6150,0.0491,-0.7651,-13.80,-55.83,-19.62
3601,2,0.6882,0.0479,-0.6917,-12.63,-54.00,-23.62
3601,3,0.6294,0.0593,-0.7634,-12.92,-52.03,-20.55
3601,4,0.6721,0.0386,-0.7007,-10.53,-49.69,-21.53
3601,5,0.8821,0.2439,-0.8269,-4.66,-57.71,-22.37
3612,0,-0.0450,0.7497,0.4715,51.26,15.35,-13.63
3612,1,0.5916,0.0754,-0.7717,-8.29,-42.41,-18.46
3612,2,0.6709,0.0703,-0.7031,-6.78,-40.64,-21.48
3612,3,0.6299,0.0774,-0.7751,-7.31,-38.66,-18.92
3612,4,0.6648,0.0623,-0.7148,-5.07,-36.99,-19.77
3612,5,0.8792,0.2656,-0.8352,0.78,-45.37,-20.24
3623,0,-0.0709,0.7656,0.4560,37.62,14.70,-8.94
3623,1,0.5947,0.0850,-0.7722,-3.50,-30.85,-16.81
3623,2,0.6682,0.0742,-0.7109,-2.26,-29.21,-19.48
3623,3,0.6311,0.0776,-0.7627,-3.02,-27.34,-17.34
3623,4,0.6736,0.0574,-0.7104,-0.78,-25.57,-17.89
3623,5,0.8848,0.2615,-0.8337,4.96,-34.35,-18.21
3633,0,-0.0654,0.7763,0.4570,28.03,13.90,-4.34
3633,1,0.6021,0.0640,-0.7646,0.67,-19.74,-15.37
3633,2,0.6792,0.0544,-0.7080,1.45,-18.31,-17.40
3633,3,0.6360,0.0525,-0.7483,0.73,-16.12,-15.98
3633,4,0.6804,0.0273,-0.6973,2.61,-15.07,-16.43
3633,5,0.8948,0.2322,-0.8342,8.61,-23.83,-16.40
3644,0,-0.0395,0.7769,0.4688,16.56,13.27,-0.63
3644,1,0.6057,0.0374,-0.7561,3.62,-10.76,-14.11
3644,2,0.6829,0.0298,-0.7043,4.52,-9.82,-15.68
3644,3,0.6570,0.0310,-0.7261,3.28,-8.00,-14.44
3644,4,0.6943,0.0090,-0.6785,5.16,-7.04,-14.87
3644,5,0.9072,0.2102,-0.8247,10.64,-16.75,-14.53
3655,0,-0.0226,0.7891,0.4731,8.85,12.18,1.26
3655,1,0.6125,0.0347,-0.7407,4.95,-4.85,-12.73
3655,2,0.6877,0.0315,-0.6978,5.37,-4.14,-14.41
3655,3,0.6626,0.0205,-0.6970,3.86,-2.55,-13.36
3655,4,0.7012,-0.0022,-0.6624,5.37,-2.03,-13.92
3655,5,0.9238,0.2051,-0.8206,10.87,-11.73,-13.62
3666,0,-0.0207,0.7986,0.4891,4.50,11.41,1.24
3666,1,0.6177,0.0308,-0.7295,4.52,-0.34,-11.83
3666,2,0.6982,0.0210,-0.7002,4.98,0.11,-13.37
3666,3,0.6697,0.0183,-0.6965,3.53,1.73,-12.84
3666,4,0.7131,-0.0032,-0.6648,4.90,2.27,-13.36
3666,5,0.9365,0.2036,-0.8320,10.81,-7.44,-12.53
3675,0,-0.0181,0.8001,0.4968,-0.19,10.59,1.35
3675,1,0.6289,0.0405,-0.7563,5.10,3.71,-10.85
3675,2,0.7085,0.0334,-0.7151,5.73,4.11,-12.49
3675,3,0.6799,0.0327,-0.7329,4.02,5.71,-11.91
3675,4,0.7258,0.0127,-0.6892,5.76,6.55,-12.47
3675,5,0.9456,0.2180,-0.8457,11.65,-3.11,-11.68
3686,0,-0.0321,0.8252,0.5043,-3.95,9.92,2.36
3686,1,0.6326,0.0503,-0.7634,5.62,7.42,-10.21
3686,2,0.7151,0.0432,-0.7285,5.86,7.57,-11.83
3686,3,0.6851,0.0361,-0.7153,4.20,9.07,-11.45
3686,4,0.7314,0.0125,-0.6809,5.51,9.34,-11.95
3686,5,0.9519,0.2180,-0.8484,10.81,-0.87,-11.24
3697,0,-0.0339,0.8401,0.4953,-6.07,9.12,1.72
3697,1,0.6355,0.0466,-0.7461,3.83,8.06,-8.85
3697,2,0.7139,0.0371,-0.7263,4.11,7.98,-10.66
3697,3,0.7119,0.0256,-0.6904,1.97,8.99,-9.83
3697,4,0.7505,0.0005,-0.6663,3.28,8.96,-10.47
3697,5,0.9639,0.2034,-0.8391,8.64,-1.44,-9.54
3708,0,-0.0250,0.8444,0.4984,-5.46,7.19,-0.70
3708,1,0.6472,0.0435,-0.7498,1.60,7.56,-7.18
3708,2,0.7285,0.0342,-0.7234,1.62,7.74,-9.16
3708,3,0.7090,0.0291,-0.6931,-0.32,9.33,-8.61
3708,4,0.7505,0.0010,-0.6719,0.73,9.48,-9.27
3708,5,0.9668,0.2087,-0.8428,6.06,-0.72,-8.50
3718,0,-0.0287,0.8403,0.5128,-6.58,5.62,-2.07
3718,1,0.6411,0.0417,-0.7556,0.23,9.95,-6.26
3718,2,0.7251,0.0388,-0.7209,0.29,10.50,-8.32
3718,3,0.6924,0.0381,-0.7136,-1.34,12.46,-7.82
3718,4,0.7261,0.0164,-0.6785,-0.21,13.39,-8.76
3718,5,0.9446,0.2207,-0.8320,5.36,3.30,-7.50
3728,0,-0.0317,0.8154,0.5001,-10.36,4.62,-2.29
3728,1,0.6340,0.0540,-0.7517,0.99,14.75,-5.15
3728,2,0.7148,0.0530,-0.7109,1.15,15.18,-7.08
3728,3,0.6804,0.0596,-0.7358,-0.15,17.39,-6.90
3728,4,0.7253,0.0386,-0.6880,1.30,18.27,-7.88
3728,5,0.9443,0.2456,-0.8257,7.60,8.37,-6.70
3739,0,-0.0559,0.7884,0.5152,-16.14,4.32,0.07
3739,1,0.6370,0.0720,-0.7522,3.88,19.91,-4.52
3739,2,0.7102,0.0657,-0.6919,4.29,20.47,-6.18
3739,3,0.6941,0.0688,-0.7251,2.78,22.44,-5.77
3739,4,0.7258,0.0444,-0.6777,4.11,23.10,-6.18
3739,5,0.9365,0.2532,-0.8137,10.32,13.16,-4.67
3750,0,-0.0605,0.7865,0.4907,-20.41,2.85,2.99
3750,1,0.6353,0.0737,-0.7405,5.91,24.56,-1.95
3750,2,0.7043,0.0647,-0.6958,5.73,24.79,-3.25
3750,3,0.6992,0.0630,-0.7043,4.05,26.92,-3.27
3750,4,0.7336,0.0334,-0.6636,4.95,27.22,-3.68
3750,5,0.9370,0.2419,-0.8208,11.28,16.98,-1.88
3760,0,-0.0521,0.7969,0.4832,-24.43,0.52,3.92
3760,1,0.6348,0.0547,-0.7388,6.27,27.47,1.05
3760,2,0.7087,0.0437,-0.6973,5.63,27.47,-0.18
3760,3,0.7031,0.0364,-0.6958,3.98,29.69,0.00
3760,4,0.7356,0.0110,-0.6631,4.85,30.44,-0.69
3760,5,0.9407,0.2126,-0.8164,10.96,19.79,1.24
3771,0,-0.0257,0.8025,0.4993,-27.28,-2.29,4.57
3771,1,0.6541,0.0295,-0.7427,6.55,30.44,3.22
3771,2,0.7417,0.0178,-0.7034,5.74,30.69,1.45
3771,3,0.7124,0.0132,-0.7019,4.09,32.92,1.05
3771,4,0.7610,-0.0095,-0.6648,5.07,33.36,0.27
3771,5,0.9905,0.1953,-0.8240,11.21,22.55,1.97
3781,0,-0.0110,0.8134,0.5600,-30.15,-2.43,4.86
3781,1,0.6814,0.0205,-0.7424,6.81,33.08,2.67
3781,2,0.7717,0.0083,-0.6890,6.09,33.05,1.07
3781,3,0.7292,0.0046,-0.6892,4.47,35.05,0.43
3781,4,0.7905,-0.0217,-0.6475,5.42,35.47,-0.40
3781,5,1.0215,0.1836,-0.8071,11.71,24.64,1.30
3791,0,-0.0004,0.8115,0.5860,-31.82,-1.63,4.83
3791,1,0.7026,0.0081,-0.7173,6.50,33.10,1.89
3791,2,0.7908,0.0022,-0.6755,5.98,32.63,0.37
3791,3,0.7708,-0.0032,-0.6550,4.06,34.26,-0.24
3791,4,0.8218,-0.0312,-0.6262,4.81,33.85,-1.16
3791,5,1.0527,0.1663,-0.7830,10.98,22.61,0.63
3802,0,0.0072,0.8101,0.6162,-29.72,-1.26,3.97
3802,1,0.7288,0.0056,-0.7061,5.40,30.11,1.28
3802,2,0.8196,-0.0010,-0.6624,4.73,29.36,-0.35
3802,3,0.7947,-0.0085,-0.6416,3.22,30.82,-0.98
3802,4,0.8438,-0.0291,-0.6064,3.88,30.37,-1.88
3802,5,1.0776,0.1746,-0.7766,9.94,18.89,-0.31
3813,0,0.0046,0.8007,0.6429,-26.42,-0.30,2.87
3813,1,0.7397,0.0098,-0.6980,4.85,27.11,-0.15
3813,2,0.8323,-0.0005,-0.6519,4.37,26.76,-2.18
3813,3,0.7852,-0.0027,-0.6428,2.55,28.31,-2.67
3813,4,0.8423,-0.0266,-0.6050,3.39,28.61,-3.73
3813,5,1.0730,0.1760,-0.7693,9.56,17.63,-2.32
3824,0,0.0009,0.7907,0.6459,-24.95,1.12,2.19
3824,1,0.7351,0.0117,-0.6956,4.87,26.53,-1.76
3824,2,0.8171,0.0051,-0.6440,4.53,26.24,-3.45
3824,3,0.7874,0.0054,-0.6514,2.98,27.86,-3.98
3824,4,0.8276,-0.0117,-0.6086,3.88,28.17,-4.69
3824,5,1.0566,0.1934,-0.7739,10.14,17.36,-3.15
3833,0,-0.0109,0.7786,0.6243,-25.15,1.82,2.73
3833,1,0.7332,0.0322,-0.7141,5.86,27.30,-1.47
3833,2,0.8003,0.0283,-0.6580,5.73,27.53,-3.08
3833,3,0.7922,0.0371,-0.6748,4.20,29.04,-3.24
3833,4,0.8279,0.0154,-0.6233,5.36,29.30,-3.69
3833,5,1.0425,0.2253,-0.7739,11.59,18.55,-1.98
3844,0,-0.0307,0.7707,0.5956,-25.92,1.12,5.23
3844,1,0.7195,0.0630,-0.7083,7.82,28.58,0.12
3844,2,0.7844,0.0530,-0.6553,7.63,28.46,-0.82
3844,3,0.7742,0.0615,-0.6743,6.24,30.79,-1.10
3844,4,0.7988,0.0405,-0.6309,7.21,31.60,-1.63
3844,5,1.0115,0.2466,-0.7788,13.40,20.79,0.27
3855,0,-0.0603,0.7666,0.5777,-29.23,-0.68,7.09
3855,1,0.7031,0.0823,-0.7178,9.66,33.54,1.89
3855,2,0.7766,0.0776,-0.6721,9.18,34.03,0.90
3855,3,0.7407,0.0764,-0.6921,7.62,36.99,0.35
3855,4,0.7766,0.0535,-0.6499,8.63,38.03,-0.09
3855,5,0.9863,0.2654,-0.8054,14.82,28.38,2.08
3866,0,-0.0743,0.7895,0.5518,-35.93,-1.63,8.73
3866,1,0.6877,0.0833,-0.7429,10.95,42.21,4.06
3866,2,0.7490,0.0776,-0.6917,10.38,42.76,3.48
3866,3,0.7390,0.0786,-0.7131,8.79,45.98,2.92
3866,4,0.7583,0.0547,-0.6682,9.92,47.37,2.95
3866,5,0.9556,0.2622,-0.8081,16.82,37.25,5.83
3876,0,-0.0678,0.7702,0.5139,-46.50,-5.27,11.29
3876,1,0.6917,0.0688,-0.7300,14.78,52.23,8.82
3876,2,0.7473,0.0627,-0.6484,14.41,52.92,8.82
3876,3,0.7456,0.0764,-0.7129,13.45,56.49,8.05
3876,4,0.7649,0.0620,-0.6379,14.47,57.47,8.00
3876,5,0.9697,0.2595,-0.7556,21.68,47.04,11.02
3887,0,-0.0599,0.7055,0.5533,-55.14,-8.45,18.46
3887,1,0.6990,0.0757,-0.7188,21.16,62.27,12.02
3887,2,0.7688,0.0637,-0.6411,20.27,63.39,12.41
3887,3,0.7292,0.0764,-0.7031,19.05,67.73,10.73
3887,4,0.7585,0.0532,-0.6414,19.80,69.60,10.99
3887,5,0.9673,0.2520,-0.7732,26.69,59.28,14.26
3898,0,-0.0594,0.7366,0.5568,-68.74,-9.73,22.66
3898,1,0.6948,0.0684,-0.7222,24.47,75.57,14.69
3898,2,0.7622,0.0540,-0.6648,23.16,75.83,15.74
3898,3,0.7415,0.0518,-0.6877,21.37,80.34,13.92
3898,4,0.7661,0.0293,-0.6487,21.82,82.00,14.20
3898,5,0.9668,0.2280,-0.8035,28.61,71.45,17.88
3909,0,-0.0381,0.7740,0.5342,-81.85,-13.40,24.99
3909,1,0.6958,0.0442,-0.7251,25.62,87.45,19.33
3909,2,0.7539,0.0361,-0.6743,23.79,87.68,20.43
3909,3,0.7380,0.0317,-0.6741,21.79,92.06,17.92
3909,4,0.7598,0.0083,-0.6326,21.74,93.85,18.37
3909,5,0.9558,0.2117,-0.7917,28.85,83.39,22.61
3919,0,-0.0234,0.7577,0.5347,-92.47,-17.01,26.79
3919,1,0.7117,0.0454,-0.7258,27.94,101.16,23.77
3919,2,0.7656,0.0393,-0.6548,25.86,101.88,25.24
3919,3,0.7444,0.0554,-0.7063,24.26,107.10,22.15
3919,4,0.7664,0.0354,-0.6372,24.64,108.82,22.73
3919,5,0.9758,0.2451,-0.7646,32.34,98.44,27.59
3930,0,-0.0449,0.7249,0.5651,-109.18,-20.77,30.89
3930,1,0.7314,0.0747,-0.7102,32.20,116.96,28.03
3930,2,0.7827,0.0676,-0.6365,30.09,118.24,30.21
3930,3,0.7551,0.0806,-0.6775,28.18,124.14,26.55
3930,4,0.7742,0.0598,-0.6167,28.38,126.43,27.22
3930,5,0.9758,0.2605,-0.7461,36.17,115.36,32.98
3941,0,-0.0681,0.6997,0.5671,-124.27,-25.34,35.56
3941,1,0.7483,0.0896,-0.6572,36.08,133.25,34.23
3941,2,0.7815,0.0847,-0.5664,33.54,133.65,36.81
3941,3,0.7983,0.1030,-0.6211,31.60,139.28,32.93
3941,4,0.8015,0.0828,-0.5452,31.48,141.07,34.06
3941,5,0.9900,0.2761,-0.6689,39.79,129.62,40.64
3952,0,-0.0780,0.6255,0.5923,-139.77,-30.68,40.49
3952,1,0.7620,0.0923,-0.6116,41.07,147.74,41.45
3952,2,0.8005,0.0764,-0.5234,37.69,148.15,44.75
3952,3,0.7937,0.0972,-0.5803,35.80,154.67,40.02
3952,4,0.7976,0.0723,-0.5088,35.16,156.67,40.92
3952,5,0.9922,0.2646,-0.6321,43.79,145.60,47.80
3962,0,-0.0660,0.5971,0.6133,-157.62,-36.70,46.18
3962,1,0.7742,0.0659,-0.5703,45.47,164.72,47.33
3962,2,0.8157,0.0464,-0.4858,41.95,165.47,50.85
3962,3,0.7834,0.0610,-0.5356,39.82,172.98,45.31
3962,4,0.7993,0.0269,-0.4570,39.13,175.33,46.00
3962,5,1.0188,0.2131,-0.5823,47.68,163.40,53.08
3973,0,-0.0133,0.5634,0.6772,-173.30,-40.23,51.08
3973,1,0.8005,-0.0042,-0.5271,49.10,182.44,50.87
3973,2,0.8528,-0.0291,-0.4429,45.16,182.15,54.85
3973,3,0.8164,-0.0210,-0.4609,42.50,188.99,48.27
3973,4,0.8433,-0.0635,-0.4006,41.22,190.81,48.85
3973,5,1.0815,0.1021,-0.5295,49.62,178.15,56.44
3984,0,0.0664,0.5601,0.7512,-188.90,-42.35,52.66
3984,1,0.8633,-0.0950,-0.4683,49.39,193.01,53.22
3984,2,0.9316,-0.1189,-0.3982,44.63,191.62,56.78
3984,3,0.8962,-0.1157,-0.3674,41.73,197.77,49.65
3984,4,0.9346,-0.1511,-0.3088,40.17,198.35,49.91
3984,5,1.1917,0.0232,-0.4736,48.17,184.17,57.53
3995,0,0.1470,0.5491,0.8534,-194.41,-43.94,50.85
3995,1,0.9741,-0.1521,-0.3840,46.37,194.20,54.35
3995,2,1.0283,-0.1719,-0.3101,41.62,191.25,58.00
3995,3,1.0447,-0.1687,-0.2483,38.34,195.60,50.79
3995,4,1.0750,-0.1965,-0.1909,36.37,194.49,51.28
3995,5,1.3247,-0.0188,-0.3740,44.40,178.75,58.89
4005,0,0.1825,0.5036,0.9764,-188.14,-45.81,47.18
4005,1,1.0710,-0.1721,-0.3235,42.64,182.56,56.31
4005,2,1.1101,-0.1929,-0.2622,37.10,178.64,59.13
4005,3,1.1548,-0.1846,-0.1792,33.59,182.14,52.76
4005,4,1.1685,-0.2156,-0.1465,31.30,180.67,53.08
4005,5,1.4102,-0.0330,-0.3477,39.40,165.22,60.15
4016,0,0.1963,0.5148,1.0443,-173.39,-48.90,42.81
4016,1,1.1187,-0.1729,-0.3098,36.44,168.93,58.20
4016,2,1.1643,-0.1929,-0.2437,30.64,165.36,60.35
4016,3,1.1804,-0.1855,-0.1707,27.48,168.93,54.23
4016,4,1.1992,-0.2122,-0.1255,25.02,167.45,53.91
4016,5,1.4500,-0.0305,-0.3235,32.92,151.44,60.52
4027,0,0.1867,0.4937,1.0960,-157.15,-50.31,37.06
4027,1,1.1340,-0.1687,-0.2920,31.77,154.23,56.90
4027,2,1.2017,-0.1904,-0.2107,26.44,151.05,57.79
4027,3,1.1692,-0.1765,-0.1782,24.12,154.18,51.73
4027,4,1.2173,-0.1985,-0.1206,22.21,152.69,50.44
4027,5,1.4990,-0.0205,-0.3003,30.63,137.54,55.94
4038,0,0.1793,0.4731,1.1956,-146.62,-46.58,34.18
4038,1,1.1362,-0.1792,-0.3069,30.46,141.56,49.22
4038,2,1.2341,-0.2024,-0.2007,26.26,137.88,49.39
4038,3,1.1382,-0.1865,-0.2114,24.32,140.43,42.96
4038,4,1.2019,-0.2136,-0.1428,23.33,139.51,41.68
4038,5,1.5037,-0.0286,-0.3132,31.63,124.95,46.09
4049,0,0.1896,0.4635,1.2045,-132.32,-36.24,33.56
4049,1,1.0964,-0.1968,-0.3071,31.91,126.95,38.26
4049,2,1.1936,-0.2078,-0.2004,28.93,124.46,38.75
4049,3,1.0808,-0.1826,-0.2351,27.04,126.53,32.76
4049,4,1.1404,-0.2043,-0.1562,26.98,125.47,31.47
4049,5,1.4426,-0.0159,-0.3159,35.11,111.76,35.05
4060,0,0.1758,0.4552,1.1535,-121.21,-24.10,34.54
4060,1,1.0237,-0.1431,-0.3647,34.21,119.01,26.47
4060,2,1.1255,-0.1504,-0.2756,32.09,117.92,26.75
4060,3,0.9724,-0.1284,-0.3064,30.05,121.07,21.19
4060,4,1.0383,-0.1421,-0.2400,30.47,121.10,20.46
4060,5,1.3291,0.0474,-0.4036,37.92,108.64,23.82
4071,0,0.1186,0.5036,1.0344,-118.12,-14.63,34.46
4071,1,0.9302,-0.0962,-0.3726,35.37,119.62,16.09
4071,2,1.0271,-0.1057,-0.2864,34.53,118.93,16.95
4071,3,0.8872,-0.0894,-0.3108,32.12,122.34,11.54
4071,4,0.9436,-0.1116,-0.2405,33.11,123.08,10.82
4071,5,1.2341,0.0808,-0.3845,40.32,111.59,14.69
4082,0,0.0936,0.4587,0.9554,-121.50,-4.71,34.76
4082,1,0.8877,-0.1062,-0.3450,37.60,125.24,7.68
4082,2,0.9778,-0.1257,-0.2632,37.53,125.22,9.19
4082,3,0.8447,-0.1152,-0.2925,35.08,129.66,3.47
4082,4,0.9009,-0.1423,-0.2266,36.67,130.60,3.44
4082,5,1.1677,0.0330,-0.3772,43.51,120.81,8.02
4092,0,0.1418,0.4292,0.8882,-129.12,1.86,36.01
4092,1,0.8938,-0.1555,-0.3250,39.04,135.18,3.54
4092,2,0.9424,-0.1699,-0.2551,38.98,134.99,5.86
4092,3,0.8875,-0.1536,-0.2451,35.83,138.99,0.73
4092,4,0.9124,-0.1780,-0.1975,37.08,139.91,1.04
4092,5,1.1562,0.0000,-0.3730,43.40,129.16,6.41
4103,0,0.1701,0.4432,0.8535,-138.63,2.61,35.14
4103,1,0.8975,-0.1772,-0.2993,37.60,143.04,3.08
4103,2,0.9397,-0.1877,-0.2354,37.68,142.69,5.53
4103,3,0.8940,-0.1750,-0.2080,34.24,146.67,-0.21
4103,4,0.9097,-0.1943,-0.1584,35.94,147.31,0.09
4103,5,1.1646,-0.0083,-0.3264,42.29,136.44,5.65
4114,0,0.1792,0.3856,0.8752,-146.65,3.27,33.93
4114,1,0.9275,-0.1685,-0.2307,37.65,150.92,2.43
4114,2,0.9646,-0.1785,-0.1458,38.08,150.21,5.01
4114,3,0.9402,-0.1531,-0.1372,34.47,154.32,-0.72
4114,4,0.9524,-0.1748,-0.0732,36.56,154.84,0.03
4114,5,1.1948,0.0071,-0.2349,43.18,143.27,6.08
4125,0,0.1704,0.2960,0.9058,-152.29,2.68,35.03
4125,1,0.9792,-0.1614,-0.1721,38.37,154.84,5.31
4125,2,0.9890,-0.1763,-0.0981,38.27,153.37,8.29
4125,3,1.0439,-0.1531,-0.0571,34.52,156.60,3.18
4125,4,1.0188,-0.1724,-0.0098,35.80,156.56,4.24
4125,5,1.2390,0.0029,-0.2007,42.06,144.34,11.11
4135,0,0.1687,0.2967,0.9074,-153.04,-3.05,34.53
4135,1,1.0271,-0.1487,-0.1277,35.85,153.34,12.53
4135,2,1.0044,-0.1487,-0.0637,34.78,151.50,15.92
4135,3,1.1057,-0.1228,-0.0005,31.02,154.66,11.53
4135,4,1.0620,-0.1372,0.0371,31.54,154.03,12.85
4135,5,1.2576,0.0540,-0.1340,38.14,140.89,20.24
4146,0,0.1250,0.2298,0.9154,-150.04,-13.77,33.46
4146,1,1.0625,-0.0962,-0.0537,34.18,148.35,23.04
4146,2,1.0291,-0.1072,0.0215,32.08,146.21,26.12
4146,3,1.1389,-0.0813,0.0664,29.02,149.27,21.97
4146,4,1.0776,-0.0981,0.1147,28.64,148.67,22.84
4146,5,1.2830,0.0737,-0.0623,35.74,135.02,30.05
4157,0,0.0983,0.1724,0.9559,-143.90,-22.01,33.25
4157,1,1.0413,-0.1050,-0.0083,31.68,141.60,31.66
4157,2,1.0054,-0.1306,0.0457,28.55,139.69,34.15
4157,3,1.0859,-0.1157,0.1108,25.44,142.52,30.14
4157,4,1.0317,-0.1448,0.1335,23.98,142.09,30.66
4157,5,1.2432,0.0276,-0.0691,31.19,128.34,37.25
4167,0,0.1416,0.1868,0.9251,-136.97,-30.54,30.08
4167,1,0.9858,-0.1509,-0.0144,26.50,135.92,39.08
4167,2,0.9553,-0.1755,0.0205,22.23,134.17,40.69
4167,3,1.0154,-0.1592,0.1028,19.15,137.65,36.66
4167,4,0.9746,-0.1812,0.1169,17.42,137.68,36.67
4167,5,1.1980,-0.0017,-0.0869,24.55,123.56,42.87
4178,0,0.1662,0.1857,0.8935,-132.90,-36.63,24.85
4178,1,0.9570,-0.1501,-0.0068,21.16,132.21,44.35
4178,2,0.9507,-0.1646,0.0393,16.69,130.50,45.10
4178,3,0.9841,-0.1477,0.1055,13.83,134.11,41.05
4178,4,0.9619,-0.1680,0.1294,12.08,133.89,40.49
4178,5,1.2014,0.0107,-0.0591,19.82,120.14,46.53
4189,0,0.1571,0.1541,0.9185,-128.61,-41.39,21.86
4189,1,0.9683,-0.1528,0.0093,17.94,127.19,47.74
4189,2,0.9551,-0.1702,0.0618,13.30,125.47,47.95
4189,3,1.0068,-0.1470,0.0991,10.99,128.46,44.47
4189,4,0.9878,-0.1672,0.1384,9.24,127.85,43.63
4189,5,1.2251,0.0020,-0.0391,16.92,113.68,49.47
4200,0,0.1676,0.1365,0.9345,-122.94,-45.17,19.97
4200,1,0.9749,-0.1750,0.0078,15.73,119.28,50.95
4200,2,0.9763,-0.1882,0.0642,10.79,117.45,50.64
4200,3,1.0059,-0.1724,0.1023,8.46,120.73,47.54
4200,4,0.9849,-0.1914,0.1345,6.44,120.69,46.34
4200,5,1.2285,-0.0242,-0.0469,14.70,107.01,51.65
4210,0,0.1882,0.1275,0.9615,-115.69,-47.42,18.99
4210,1,0.9958,-0.1987,0.0020,15.50,114.53,52.89
4210,2,0.9946,-0.2148,0.0920,10.64,113.16,52.63
4210,3,1.0183,-0.1792,0.0942,8.79,117.37,49.57
4210,4,1.0024,-0.1963,0.1558,6.85,117.98,48.37
4210,5,1.2393,-0.0322,-0.0039,15.11,104.64,53.89
4221,0,0.1973,0.0874,0.9975,-114.14,-49.56,19.69
4221,1,1.0291,-0.1882,0.0713,15.25,115.92,55.34
4221,2,1.0083,-0.2046,0.1533,9.92,115.24,55.19
4221,3,1.0349,-0.1794,0.1914,7.92,119.48,52.32
4221,4,0.9919,-0.2014,0.2397,5.25,119.98,51.36
4221,5,1.2280,-0.0337,0.0691,13.76,106.18,56.64
4232,0,0.1973,0.0372,0.9831,-115.52,-53.03,18.13
4232,1,1.0142,-0.1970,0.1262,12.15,118.58,59.31
4232,2,0.9822,-0.2227,0.1763,6.15,118.06,58.78
4232,3,1.0151,-0.2097,0.2397,3.91,122.89,56.05
4232,4,0.9709,-0.2351,0.2632,0.61,123.94,54.79
4232,5,1.1965,-0.0757,0.0625,8.75,110.95,60.92
4243,0,0.2330,0.0399,0.9549,-120.57,-57.84,14.35
4243,1,1.0027,-0.2471,0.1597,6.52,123.25,64.17
4243,2,0.9653,-0.2661,0.1938,0.06,122.18,63.31
4243,3,1.0117,-0.2495,0.2751,-2.61,126.84,60.38
4243,4,0.9644,-0.2756,0.2927,-6.14,127.77,58.93
4243,5,1.1973,-0.1047,0.0967,2.21,113.86,65.24
4253,0,0.2682,0.0052,0.9450,-122.83,-64.19,8.72
4253,1,0.9954,-0.2544,0.1799,2.18,123.10,69.40
4253,2,0.9592,-0.2761,0.2480,-4.63,121.71,68.00
4253,3,1.0215,-0.2380,0.2695,-6.29,125.80,65.16
4253,4,0.9751,-0.2566,0.3186,-9.28,126.18,63.31
4253,5,1.2131,-0.0874,0.1589,-0.40,111.37,69.48
4264,0,0.2644,-0.0876,0.9897,-120.56,-67.88,8.91
4264,1,1.0127,-0.2432,0.1375,3.40,121.19,73.94
4264,2,1.0020,-0.2703,0.2107,-2.96,122.02,72.46
4264,3,0.9917,-0.2285,0.1504,-3.74,127.91,69.04
4264,4,0.9685,-0.2539,0.2334,-6.43,128.82,66.98
4264,5,1.1904,-0.0837,0.0986,3.15,114.72,73.83
4275,0,0.2694,-0.0560,0.9711,-124.53,-71.19,12.98
4275,1,0.9912,-0.2898,0.1077,7.40,128.69,76.17
4275,2,0.9739,-0.3123,0.2085,0.67,128.31,74.70
4275,3,0.9421,-0.2759,0.1924,-0.60,133.57,70.84
4275,4,0.9211,-0.3035,0.2727,-3.71,134.44,68.26
4275,5,1.1926,-0.1428,0.1282,6.15,120.69,73.95
4286,0,0.3146,-0.0809,1.0153,-129.76,-69.54,15.56
4286,1,0.9385,-0.3113,0.1758,9.74,132.11,73.27
4286,2,0.9580,-0.3347,0.2688,3.27,132.00,71.68
4286,3,0.8630,-0.2983,0.2253,2.17,137.85,67.13
4286,4,0.8645,-0.3127,0.2949,-0.61,139.51,64.84
4286,5,1.1260,-0.1492,0.1436,8.76,126.18,70.92
4296,0,0.3215,-0.1085,0.9892,-136.71,-66.32,17.38
4296,1,0.9102,-0.3127,0.1936,11.95,141.63,69.45
4296,2,0.9031,-0.3279,0.2869,5.95,140.64,68.18
4296,3,0.8423,-0.2930,0.2722,4.34,145.66,63.27
4296,4,0.8323,-0.3008,0.3357,1.82,146.31,61.48
4296,5,1.1030,-0.1387,0.1858,11.10,133.31,67.60
4307,0,0.3066,-0.1427,0.9498,-143.34,-62.25,18.80
4307,1,0.8594,-0.2861,0.2397,14.29,145.01,66.06
4307,2,0.8528,-0.3088,0.3386,8.93,143.89,65.11
4307,3,0.8047,-0.2600,0.3054,7.42,148.34,59.95
4307,4,0.7932,-0.2788,0.3638,5.48,149.08,58.15
4307,5,1.0637,-0.1130,0.2117,14.60,135.89,64.15
4318,0,0.2828,-0.1903,0.9244,-145.15,-54.09,21.65
4318,1,0.7988,-0.2832,0.2659,17.50,144.56,61.66
4318,2,0.7983,-0.3030,0.3416,12.06,142.89,60.99
4318,3,0.7478,-0.2666,0.3188,10.44,146.50,55.62
4318,4,0.7512,-0.2881,0.3682,8.27,146.72,53.79
4318,5,1.0383,-0.1216,0.2339,16.92,132.00,59.47
4329,0,0.2904,-0.1756,0.8812,-141.31,-53.39,22.21
4329,1,0.7637,-0.2822,0.2751,17.73,138.93,56.43
4329,2,0.7859,-0.3057,0.3286,12.72,137.30,55.24
4329,3,0.7356,-0.2766,0.3403,10.64,140.14,50.11
4329,4,0.7444,-0.2856,0.3826,9.10,139.44,48.11
4329,5,1.0464,-0.1179,0.2368,17.60,124.75,53.54
4339,0,0.2805,-0.1891,0.8940,-132.96,-46.94,21.51
4339,1,0.7864,-0.2666,0.3140,18.46,131.18,49.94
4339,2,0.7974,-0.2827,0.3955,14.79,128.44,48.99
4339,3,0.7539,-0.2451,0.3894,12.79,131.62,44.43
4339,4,0.7595,-0.2612,0.4502,11.65,130.00,42.41
4339,5,1.0447,-0.0940,0.2695,20.15,115.91,47.22
4350,0,0.2629,-0.2430,0.9056,-124.69,-41.79,22.12
4350,1,0.7837,-0.2075,0.3606,17.95,121.16,43.24
4350,2,0.8081,-0.2017,0.3850,13.33,117.89,41.83
4350,3,0.7483,-0.1731,0.4797,10.26,119.86,36.87
4350,4,0.7786,-0.1731,0.4756,8.27,117.74,34.63
4350,5,1.0984,0.0015,0.2578,14.98,102.70,38.53
4361,0,0.1436,-0.1283,0.8779,-108.57,-34.56,14.91
4361,1,0.7859,-0.1938,0.3638,9.94,101.97,37.71
4361,2,0.7676,-0.2524,0.3918,5.97,99.45,36.90
4361,3,0.8210,-0.2544,0.4976,3.34,100.79,33.94
4361,4,0.7932,-0.2944,0.5039,1.45,98.81,32.49
4361,5,1.0649,-0.1458,0.3118,8.55,83.51,36.81
4372,0,0.3037,-0.2114,0.8536,-92.54,-35.10,8.19
4372,1,0.7898,-0.3210,0.3953,4.20,83.89,37.30
4372,2,0.7712,-0.3418,0.4080,-0.05,81.74,35.34
4372,3,0.8059,-0.3188,0.4941,-2.27,83.24,33.40
4372,4,0.7773,-0.3284,0.4888,-3.98,81.92,31.50
4372,5,1.0381,-0.1565,0.2903,3.22,68.34,35.31
4382,0,0.3228,-0.2200,0.8524,-76.07,-35.37,3.95
4382,1,0.7991,-0.3105,0.3611,1.04,74.43,36.76
4382,2,0.7776,-0.3247,0.4146,-2.52,73.42,34.58
4382,3,0.7820,-0.2849,0.4336,-4.03,76.06,32.84
4382,4,0.7534,-0.3032,0.4675,-5.08,76.47,30.84
4382,5,1.0205,-0.1411,0.3071,2.50,63.68,34.55
4393,0,0.3116,-0.2712,0.8669,-71.91,-34.47,3.52
4393,1,0.7964,-0.3284,0.3792,1.77,73.47,35.37
4393,2,0.7783,-0.3403,0.4407,-1.54,73.25,33.10
4393,3,0.7371,-0.3127,0.4458,-3.27,76.92,31.05
4393,4,0.7231,-0.3267,0.4709,-4.12,77.74,28.98
4393,5,0.9985,-0.1702,0.3069,3.62,66.44,32.06
4404,0,0.3318,-0.2743,0.8805,-74.95,-32.24,3.83
4404,1,0.7852,-0.3472,0.3684,2.47,79.15,31.48
4404,2,0.7805,-0.3645,0.4268,-0.29,78.84,29.01
4404,3,0.7046,-0.3333,0.4172,-1.85,82.38,26.29
4404,4,0.7041,-0.3433,0.4534,-1.97,83.11,23.62
4404,5,1.0059,-0.1882,0.3008,5.57,71.48,26.70
4415,0,0.3518,-0.2768,0.9049,-80.62,-25.44,4.57
4415,1,0.7576,-0.3735,0.3713,4.66,84.15,23.73
4415,2,0.7708,-0.3918,0.4473,2.93,84.23,21.21
4415,3,0.6592,-0.3518,0.4172,1.31,87.76,17.97
4415,4,0.6729,-0.3623,0.4644,1.83,88.73,15.25
4415,5,0.9819,-0.2021,0.3362,9.77,77.51,18.23
4425,0,0.3686,-0.3213,0.9093,-85.80,-17.66,6.65
4425,1,0.7363,-0.3818,0.3979,8.53,90.95,14.56
4425,2,0.7559,-0.3994,0.4805,8.05,91.37,12.15
4425,3,0.6318,-0.3562,0.4309,6.14,94.76,8.38
4425,4,0.6411,-0.3713,0.4954,7.47,96.21,6.15
4425,5,0.9556,-0.2092,0.3630,15.08,85.89,9.56
4436,0,0.3753,-0.3598,0.8875,-94.85,-7.00,9.22
4436,1,0.7263,-0.3789,0.4458,13.15,100.85,6.00
4436,2,0.7239,-0.3955,0.5217,13.57,101.21,4.89
4436,3,0.6404,-0.3384,0.4741,11.27,105.34,1.13
4436,4,0.6355,-0.3416,0.5283,13.16,106.81,-0.12
4436,5,0.9185,-0.1721,0.4028,20.64,96.61,4.15
4447,0,0.3504,-0.4222,0.8457,-104.49,-0.72,13.86
4447,1,0.7329,-0.3467,0.4771,18.05,111.62,2.35
4447,2,0.6995,-0.3599,0.5369,18.64,111.97,2.31
4447,3,0.6482,-0.3201,0.5305,16.14,115.33,-1.88
4447,4,0.6118,-0.3306,0.5596,17.80,116.67,-2.73
4447,5,0.8977,-0.1670,0.4148,24.43,106.29,1.89
4458,0,0.3382,-0.4082,0.8068,-115.31,1.80,15.91
4458,1,0.6948,-0.3391,0.5244,19.01,120.15,-0.21
4458,2,0.6682,-0.3530,0.5674,19.48,119.83,-0.14
4458,3,0.6233,-0.3196,0.6030,16.15,123.31,-4.63
4458,4,0.5923,-0.3286,0.6233,17.80,123.68,-5.56
4458,5,0.8838,-0.1729,0.4648,24.29,112.78,-0.85
4468,0,0.3368,-0.4432,0.8000,-121.42,4.85,14.79
4468,1,0.6802,-0.3538,0.5901,18.11,123.34,-3.42
4468,2,0.6497,-0.3655,0.6201,18.89,122.53,-3.33
4468,3,0.6216,-0.3372,0.6726,15.37,124.55,-8.20
4468,4,0.5947,-0.3472,0.6929,17.22,124.40,-9.28
4468,5,0.8936,-0.1919,0.5198,23.28,112.38,-4.81
4479,0,0.3545,-0.4850,0.8158,-120.64,7.75,12.35
4479,1,0.6973,-0.3577,0.6428,15.80,120.26,-6.95
4479,2,0.6670,-0.3743,0.6599,16.46,119.15,-7.42
4479,3,0.6536,-0.3501,0.7458,12.72,120.37,-11.80
4479,4,0.6235,-0.3643,0.7388,14.37,119.51,-13.13
4479,5,0.9243,-0.2024,0.5476,20.12,107.48,-8.41
4490,0,0.3601,-0.4881,0.8368,-115.15,10.64,8.51
4490,1,0.7129,-0.3804,0.6602,11.15,114.69,-10.40
4490,2,0.6829,-0.3916,0.6750,12.43,113.19,-11.34
4490,3,0.6641,-0.3630,0.7620,8.50,114.41,-15.76
4490,4,0.6326,-0.3738,0.7529,10.35,113.76,-17.15
4490,5,0.9343,-0.2241,0.5552,15.83,102.27,-12.95
4500,0,0.3787,-0.5009,0.8553,-110.27,14.21,3.33
4500,1,0.6914,-0.3879,0.6562,7.40,110.40,-15.24
4500,2,0.6589,-0.3965,0.6624,9.21,109.66,-16.76
4500,3,0.6096,-0.3625,0.7222,5.40,111.42,-20.93
4500,4,0.5806,-0.3752,0.7158,8.03,111.48,-22.63
4500,5,0.8772,-0.2178,0.5239,13.42,101.15,-18.35
4511,0,0.3765,-0.5040,0.8122,-108.89,17.99,-0.30
4511,1,0.6489,-0.3762,0.6328,5.45,112.72,-20.27
4511,2,0.6252,-0.3838,0.6628,8.02,112.76,-21.77
4511,3,0.5481,-0.3442,0.6982,4.27,114.90,-26.18
4511,4,0.5159,-0.3367,0.7017,7.59,116.17,-28.06
4511,5,0.8091,-0.1797,0.5352,13.28,106.90,-23.37
4522,0,0.3462,-0.5429,0.7582,-115.66,23.05,-1.33
4522,1,0.5762,-0.3467,0.6499,6.11,120.82,-24.52
4522,2,0.5015,-0.3572,0.6672,9.31,122.14,-24.35
4522,3,0.5105,-0.3052,0.6694,5.63,126.72,-27.88
4522,4,0.4304,-0.3062,0.6709,9.24,129.45,-28.17
4522,5,0.6050,-0.1204,0.4932,14.96,121.18,-20.82
4533,0,0.3078,-0.5943,0.4943,-129.43,15.47,1.92
4533,1,0.7637,-0.2578,0.5591,8.56,159.22,-6.11
4533,2,0.5916,-0.2783,0.6165,10.99,164.69,-3.42
4533,3,0.7139,-0.2151,0.5667,7.31,175.25,-6.82
4533,4,0.5637,-0.2334,0.6184,10.20,182.93,-6.21
4533,5,0.7429,-0.0767,0.5125,17.88,177.44,3.57
4543,0,0.2779,-0.6196,0.7513,-189.80,-1.80,9.22
4543,1,0.8208,-0.3252,0.6697,16.21,205.83,9.48
4543,2,0.6865,-0.3501,0.7664,17.05,207.19,11.08
4543,3,0.7207,-0.2998,0.7627,13.11,212.32,4.63
4543,4,0.6194,-0.3196,0.8059,15.18,214.67,3.88
4543,5,0.8608,-0.1721,0.6597,22.11,204.21,13.34
4554,0,0.3453,-0.6523,0.8180,-214.41,-8.61,14.47
4554,1,0.6619,-0.3616,0.7700,16.79,216.00,12.20
4554,2,0.5791,-0.3745,0.8008,16.75,215.21,12.56
4554,3,0.5303,-0.3445,0.8821,11.89,218.43,4.69
4554,4,0.4729,-0.3469,0.8716,13.30,218.70,2.81
4554,5,0.7617,-0.1946,0.6890,19.86,207.16,11.60
4565,0,0.3460,-0.6794,0.7358,-216.40,-7.33,11.18
4565,1,0.5730,-0.3481,0.8042,14.32,218.87,9.80
4565,2,0.5181,-0.3628,0.8293,14.69,218.23,9.73
4565,3,0.4873,-0.3269,0.8857,10.05,221.94,1.68
4565,4,0.4417,-0.3376,0.8801,12.08,222.56,-0.17
4565,5,0.7385,-0.1970,0.7195,18.82,211.01,8.72
4576,0,0.3588,-0.7260,0.7387,-220.76,-4.72,10.03
4576,1,0.6104,-0.3843,0.8259,13.83,225.13,7.66
4576,2,0.5483,-0.3999,0.8562,14.72,224.34,7.82
4576,3,0.5352,-0.3599,0.9106,9.68,228.49,-0.23
4576,4,0.4902,-0.3740,0.9248,11.85,229.19,-2.03
4576,5,0.7812,-0.2214,0.7593,18.63,217.50,7.48
4586,0,0.3914,-0.7514,0.7713,-226.07,-4.18,9.08
4586,1,0.6875,-0.4072,0.8960,12.29,227.63,8.58
4586,2,0.5991,-0.4221,0.9346,12.84,225.15,8.99
4586,3,0.7009,-0.3865,1.0505,7.39,227.76,1.92
4586,4,0.6189,-0.3958,1.0579,8.73,226.18,0.76
4586,5,0.8801,-0.2544,0.8674,15.10,211.74,11.13
4597,0,0.4137,-0.7964,0.8056,-219.29,-8.61,6.56
4597,1,0.7761,-0.4197,0.9907,7.63,213.86,15.79
4597,2,0.6318,-0.4419,1.0024,6.75,210.58,16.79
4597,3,0.8284,-0.3911,1.1316,1.48,211.42,11.04
4597,4,0.7009,-0.4009,1.1184,2.20,209.48,10.09
4597,5,0.9268,-0.2524,0.9124,8.67,194.40,20.69
4608,0,0.4132,-0.8401,0.8112,-199.57,-20.58,2.80
4608,1,0.7681,-0.3772,1.0002,2.70,191.62,26.67
4608,2,0.6121,-0.3840,1.0042,0.72,187.36,26.60
4608,3,0.8015,-0.3376,1.1121,-3.53,187.51,21.69
4608,4,0.6685,-0.3391,1.0874,-3.98,184.93,20.56
4608,5,0.8923,-0.1934,0.8779,3.05,169.83,29.33
4619,0,0.3588,-0.8056,0.7646,-177.87,-29.14,-0.28
4619,1,0.6765,-0.3406,0.9297,-1.76,167.25,35.21
4619,2,0.5347,-0.3533,0.9307,-4.76,164.15,34.26
4619,3,0.6887,-0.3083,1.0166,-8.15,164.40,30.29
4619,4,0.5713,-0.3179,0.9980,-9.30,162.55,28.70
4619,5,0.7996,-0.1689,0.8086,-1.94,147.66,36.89
4629,0,0.3396,-0.7840,0.6711,-154.42,-37.96,-2.17
4629,1,0.5859,-0.3191,0.8965,-4.24,148.46,42.50
4629,2,0.4556,-0.3318,0.9163,-7.95,145.56,40.84
4629,3,0.5376,-0.2849,1.0044,-11.24,146.47,37.21
4629,4,0.4353,-0.2856,0.9875,-12.61,145.21,34.52
4629,5,0.6995,-0.1353,0.8064,-5.18,130.17,41.04
4640,0,0.2962,-0.8052,0.6261,-139.79,-42.60,-4.24
4640,1,0.4646,-0.2842,0.9009,-7.04,134.98,45.27
4640,2,0.3508,-0.3010,0.9077,-10.87,132.96,43.10
4640,3,0.4558,-0.2517,0.9412,-13.24,135.94,40.21
4640,4,0.3525,-0.2583,0.9297,-14.58,135.82,38.24
4640,5,0.5852,-0.1082,0.7727,-6.08,121.86,45.66
4651,0,0.2898,-0.8444,0.5047,-130.38,-47.15,-2.56
4651,1,0.4578,-0.2913,0.8484,-4.98,129.50,52.67
4651,2,0.3284,-0.3066,0.8745,-9.15,128.24,51.10
4651,3,0.4578,-0.2493,0.8684,-11.07,131.10,48.61
4651,4,0.3481,-0.2600,0.8760,-12.49,131.53,46.85
4651,5,0.5808,-0.1152,0.7458,-3.68,117.73,53.82
4662,0,0.2974,-0.8339,0.5053,-126.19,-54.42,1.64
4662,1,0.4246,-0.2974,0.8301,-1.31,126.03,58.76
4662,2,0.3142,-0.3110,0.8560,-6.21,124.70,56.84
4662,3,0.3779,-0.2568,0.8550,-7.83,128.64,54.17
4662,4,0.2891,-0.2712,0.8616,-9.85,129.48,52.09
4662,5,0.5327,-0.1248,0.7271,-1.15,116.09,58.27
4672,0,0.3044,-0.8158,0.4878,-125.19,-57.87,5.20
4672,1,0.3662,-0.3032,0.8376,0.63,126.72,61.27
4672,2,0.2651,-0.3179,0.8564,-4.93,126.17,58.99
4672,3,0.2483,-0.2791,0.8865,-6.89,130.47,55.47
4672,4,0.1851,-0.2864,0.8723,-9.28,131.22,52.55
4672,5,0.4780,-0.1411,0.7285,-0.50,118.41,57.54
4683,0,0.3056,-0.8095,0.4547,-127.96,-56.37,4.88
4683,1,0.2781,-0.3098,0.8354,0.69,132.90,58.73
4683,2,0.1943,-0.3264,0.8547,-4.03,133.21,56.76
4683,3,0.1873,-0.2800,0.8435,-5.59,139.22,53.37
4683,4,0.1116,-0.2866,0.8557,-7.51,141.42,51.11
4683,5,0.3745,-0.1382,0.7375,1.71,129.24,57.68
4694,0,0.3282,-0.8811,0.3913,-137.85,-55.77,7.66
4694,1,0.2791,-0.3457,0.8650,4.84,144.31,58.98
4694,2,0.2021,-0.3669,0.8987,0.09,144.50,57.27
4694,3,0.1726,-0.3235,0.8748,-1.59,149.53,52.82
4694,4,0.1184,-0.3374,0.8887,-3.28,150.96,50.37
4694,5,0.4197,-0.1992,0.7556,5.42,138.58,56.21
4705,0,0.3655,-0.8750,0.4405,-148.05,-53.44,10.27
4705,1,0.2551,-0.3738,0.8887,6.32,152.23,55.69
4705,2,0.1873,-0.3918,0.8960,1.60,152.15,53.82
4705,3,0.1370,-0.3528,0.9226,-1.18,157.33,48.78
4705,4,0.0942,-0.3599,0.9136,-2.53,158.63,46.24
4705,5,0.3923,-0.2144,0.7634,5.65,146.06,52.69
4715,0,0.3810,-0.8675,0.3810,-156.17,-49.74,8.98
4715,1,0.2283,-0.3774,0.9138,5.50,159.77,52.66
4715,2,0.1545,-0.3901,0.9207,1.05,159.74,51.02
4715,3,0.1167,-0.3479,0.9465,-1.39,164.72,45.57
4715,4,0.0623,-0.3525,0.9272,-2.89,166.21,43.25
4715,5,0.3425,-0.2046,0.7932,5.73,154.02,50.20
4726,0,0.3742,-0.9279,0.3725,-163.38,-47.20,8.61
4726,1,0.1680,-0.3633,0.9702,5.39,168.98,49.53
4726,2,0.1123,-0.3704,0.9465,1.16,168.81,47.07
4726,3,-0.0383,-0.3379,0.9988,-1.62,172.90,40.21
4726,4,-0.0571,-0.3372,0.9563,-2.52,174.87,36.31
4726,5,0.2434,-0.1816,0.7903,5.82,163.25,43.08
4737,0,0.3467,-0.9429,0.2967,-174.28,-40.32,6.47
4737,1,0.0762,-0.3447,0.9377,5.31,183.07,42.17
4737,2,0.0017,-0.3633,0.9363,2.75,184.15,40.90
4737,3,-0.0481,-0.3184,0.9258,-0.06,190.56,34.81
4737,4,-0.1069,-0.3201,0.9192,-0.06,193.37,32.34
4737,5,0.1765,-0.1731,0.8113,8.72,182.18,40.87
4748,0,0.3568,-1.0050,0.2405,-190.73,-37.31,9.17
4748,1,0.0691,-0.3628,0.9536,9.59,200.46,40.02
4748,2,0.0217,-0.3660,0.9648,7.54,200.78,38.90
4748,3,-0.0798,-0.3145,0.9492,4.29,206.27,31.63
4748,4,-0.1206,-0.3269,0.9463,4.76,208.03,29.18
4748,5,0.1855,-0.1780,0.8367,13.05,196.38,37.24
4758,0,0.3538,-0.9967,0.2558,-206.45,-32.72,11.94
4758,1,0.0134,-0.3564,0.9656,12.05,212.40,34.35
4758,2,-0.0391,-0.3645,0.9563,10.47,211.71,33.42
4758,3,-0.1077,-0.3281,0.9858,6.52,217.22,25.66
4758,4,-0.1521,-0.3325,0.9541,7.07,218.43,23.51
4758,5,0.1399,-0.1846,0.8352,14.75,206.17,32.95
4769,0,0.3597,-0.9965,0.1862,-216.12,-28.17,12.20
4769,1,0.0261,-0.3560,0.9915,12.93,218.82,33.08
4769,2,-0.0662,-0.3655,0.9692,11.25,217.71,32.98
4769,3,-0.0354,-0.3213,1.0229,7.18,221.57,25.80
4769,4,-0.1021,-0.3254,0.9961,7.53,221.57,23.86
4769,5,0.1792,-0.1748,0.8621,15.42,208.23,33.18
4780,0,0.3478,-1.0108,0.2029,-217.72,-28.58,12.76
4780,1,0.0303,-0.3359,1.0039,13.25,216.49,32.60
4780,2,-0.0403,-0.3452,0.9705,11.54,214.79,31.97
4780,3,-0.0581,-0.2993,1.0305,7.47,218.14,24.55
4780,4,-0.1082,-0.3015,0.9915,7.69,217.86,22.27
4780,5,0.1909,-0.1560,0.8545,15.53,204.56,30.72
4791,0,0.3222,-0.9523,0.2334,-213.69,-26.00,11.74
4791,1,-0.0476,-0.3064,0.9863,11.42,210.23,24.92
4791,2,-0.0774,-0.3103,0.9324,10.17,208.21,23.63
4791,3,-0.1501,-0.2817,1.0122,5.60,211.48,15.83
4791,4,-0.1729,-0.2886,0.9504,6.44,211.11,13.16
4791,5,0.1328,-0.1414,0.7944,13.42,197.73,21.69
4801,0,0.3072,-0.9311,0.1523,-206.36,-18.27,7.53
4801,1,-0.0083,-0.3127,0.9565,8.84,205.54,21.45
4801,2,-0.0903,-0.3281,0.9277,8.00,204.02,21.16
4801,3,-0.0522,-0.2932,1.0120,3.86,206.41,14.38
4801,4,-0.1111,-0.2971,0.9727,4.87,205.69,12.14
4801,5,0.1907,-0.1494,0.8413,12.43,192.00,20.26
4812,0,0.3192,-0.9831,0.1926,-200.85,-17.36,6.98
4812,1,-0.0227,-0.3264,0.9875,9.34,196.87,19.69
4812,2,-0.1057,-0.3298,0.9548,8.64,194.21,18.98
4812,3,-0.0679,-0.2910,1.0002,4.58,196.90,12.82
4812,4,-0.1357,-0.2898,0.9736,5.53,195.82,11.33
4812,5,0.1418,-0.1460,0.8396,12.70,182.00,19.76
4823,0,0.3243,-0.9815,0.1142,-189.38,-17.24,7.24
4823,1,-0.0391,-0.3340,0.9854,8.66,184.20,21.01
4823,2,-0.1311,-0.3457,0.9443,7.51,181.53,20.53
4823,3,-0.0442,-0.3176,1.0417,3.76,182.27,15.08
4823,4,-0.1199,-0.3230,0.9946,3.94,179.48,13.07
4823,5,0.1626,-0.1799,0.8418,11.01,164.64,20.70
4833,0,0.3522,-0.9694,0.1124,-174.18,-18.92,6.00
4833,1,-0.0513,-0.3538,1.0039,6.41,163.27,21.69
4833,2,-0.1318,-0.3674,0.9480,4.84,159.74,20.46
4833,3,-0.0747,-0.3381,1.0344,1.30,160.56,15.31
4833,4,-0.1384,-0.3418,0.9761,1.53,158.64,13.24
4833,5,0.1504,-0.1904,0.8120,8.31,144.67,19.89
4844,0,0.3647,-0.9477,0.1169,-152.20,-18.67,3.69
4844,1,-0.0613,-0.3662,0.9622,4.20,146.99,20.35
4844,2,-0.1465,-0.3750,0.9014,2.69,145.11,19.15
4844,3,-0.1052,-0.3455,0.9622,-0.72,146.76,14.60
4844,4,-0.1685,-0.3506,0.9124,-0.06,146.05,12.78
4844,5,0.0984,-0.1958,0.7568,6.93,133.18,19.42
4855,0,0.3773,-0.9301,0.0692,-140.56,-19.08,2.19
4855,1,-0.0840,-0.3843,0.9236,3.18,138.03,20.98
4855,2,-0.1709,-0.3896,0.8726,1.60,136.26,19.65
4855,3,-0.1045,-0.3604,0.9355,-1.53,137.97,15.69
4855,4,-0.1826,-0.3669,0.8921,-1.25,136.67,14.00
4855,5,0.0940,-0.2202,0.7490,5.63,122.79,20.05
4866,0,0.3956,-0.9151,0.0498,-130.95,-19.51,1.75
4866,1,-0.1074,-0.4075,0.9038,2.66,125.50,21.62
4866,2,-0.1907,-0.4153,0.8545,0.76,123.33,19.83
4866,3,-0.1426,-0.3845,0.9121,-2.03,124.43,16.09
4866,4,-0.2019,-0.3894,0.8647,-1.76,123.42,14.38
4866,5,0.0737,-0.2380,0.7144,5.19,110.29,20.12
4875,0,0.4189,-0.8977,0.0299,-117.30,-19.70,1.64
4875,1,-0.1208,-0.4177,0.8740,2.67,115.45,20.92
4875,2,-0.2061,-0.4194,0.8347,1.11,114.56,19.34
4875,3,-0.1729,-0.3826,0.8679,-1.27,116.92,16.11
4875,4,-0.2446,-0.3889,0.8274,-0.69,116.93,14.32
4875,5,0.0303,-0.2305,0.6997,6.58,104.93,19.71
4886,0,0.4139,-0.9174,0.0133,-113.31,-19.15,3.57
4886,1,-0.1479,-0.3989,0.8757,5.08,116.05,20.81
4886,2,-0.2275,-0.4104,0.8438,3.98,115.85,19.25
4886,3,-0.2383,-0.3616,0.8494,1.53,119.16,15.62
4886,4,-0.3000,-0.3643,0.8147,2.56,120.29,13.95
4886,5,-0.0381,-0.2014,0.6973,10.17,109.30,19.53
4897,0,0.3936,-0.9418,-0.0348,-118.49,-18.24,6.42
4897,1,-0.1973,-0.3904,0.8638,8.70,123.11,19.82
4897,2,-0.2769,-0.3845,0.8201,7.57,123.47,18.56
4897,3,-0.3103,-0.3472,0.8223,5.15,127.15,14.44
4897,4,-0.3557,-0.3481,0.7815,6.06,128.20,13.04
4897,5,-0.0806,-0.1875,0.6577,13.01,117.34,18.31
4908,0,0.3753,-0.9067,-0.0714,-125.51,-15.96,9.14
4908,1,-0.2449,-0.3647,0.8313,11.01,131.01,17.79
4908,2,-0.3086,-0.3652,0.7817,9.85,131.05,16.79
4908,3,-0.3525,-0.3291,0.8098,7.22,134.44,12.32
4908,4,-0.3923,-0.3347,0.7595,8.08,135.57,10.64
4908,5,-0.1074,-0.1743,0.6484,15.50,123.91,16.09
4918,0,0.3600,-0.8958,-0.1055,-132.51,-13.49,10.89
4918,1,-0.2837,-0.3518,0.8401,13.22,134.05,14.82
4918,2,-0.3420,-0.3545,0.7908,12.63,133.30,14.15
4918,3,-0.3567,-0.3149,0.8042,10.08,136.58,9.54
4918,4,-0.3979,-0.3171,0.7661,11.25,136.84,8.21
4918,5,-0.1128,-0.1628,0.6521,18.47,125.33,13.57
4930,0,0.3514,-0.9029,-0.1144,-134.09,-10.27,12.83
4930,1,-0.2834,-0.3528,0.8408,15.60,135.74,12.27
4930,2,-0.3418,-0.3525,0.7898,14.96,135.08,11.85
4930,3,-0.3716,-0.3206,0.8276,12.02,137.65,7.04
4930,4,-0.4124,-0.3220,0.7886,13.39,137.50,5.79
4930,5,-0.1267,-0.1641,0.6611,20.15,125.08,11.48
4941,0,0.3514,-0.9067,-0.1435,-133.56,-7.75,13.81
4941,1,-0.3159,-0.3433,0.8816,16.14,130.76,10.92
4941,2,-0.3931,-0.3433,0.8127,15.34,128.60,10.93
4941,3,-0.3408,-0.3169,0.8901,12.23,130.14,6.75
4941,4,-0.4001,-0.3179,0.8271,13.07,129.10,6.14
4941,5,-0.1350,-0.1697,0.6951,19.86,115.71,11.76
4952,0,0.3504,-0.9278,-0.1870,-123.48,-8.57,13.44
4952,1,-0.3208,-0.3467,0.9116,15.10,119.47,12.66
4952,2,-0.4148,-0.3513,0.8352,14.02,117.15,12.90
4952,3,-0.3328,-0.3271,0.9204,10.96,118.63,9.60
4952,4,-0.4131,-0.3306,0.8518,11.27,117.31,9.07
4952,5,-0.1636,-0.1892,0.7109,18.02,104.32,14.53
4962,0,0.3690,-0.9442,-0.2151,-111.70,-12.22,12.69
4962,1,-0.3235,-0.3716,0.9233,13.31,109.97,16.81
4962,2,-0.4304,-0.3765,0.8369,11.68,108.02,16.99
4962,3,-0.3452,-0.3589,0.9275,8.73,110.18,14.03
4962,4,-0.4250,-0.3621,0.8511,8.82,109.37,13.66
4962,5,-0.1831,-0.2095,0.6960,15.40,96.37,18.66
4973,0,0.3958,-0.9372,-0.2344,-104.58,-17.43,11.18
4973,1,-0.3438,-0.3904,0.9084,11.19,101.65,21.04
4973,2,-0.4426,-0.3914,0.8171,8.87,99.79,20.55
4973,3,-0.3687,-0.3699,0.9067,5.92,101.59,18.26
4973,4,-0.4460,-0.3660,0.8328,5.63,100.87,17.57
4973,5,-0.1948,-0.2148,0.6709,12.60,87.71,22.41
4984,0,0.3997,-0.9180,-0.2521,-95.78,-20.84,9.05
4984,1,-0.3623,-0.3843,0.8933,8.32,93.50,24.82
4984,2,-0.4563,-0.3801,0.8047,5.91,92.09,24.00
4984,3,-0.3962,-0.3555,0.8887,3.34,93.85,21.60
4984,4,-0.4712,-0.3618,0.8132,2.92,93.27,20.66
4984,5,-0.2151,-0.2029,0.6643,9.80,80.12,25.07
4995,0,0.3869,-0.9180,-0.2656,-87.94,-24.15,7.65
4995,1,-0.3992,-0.3652,0.8757,6.47,86.96,26.58
4995,2,-0.4780,-0.3679,0.7820,3.54,85.79,25.22
4995,3,-0.4514,-0.3420,0.8716,1.28,87.68,22.73
4995,4,-0.5166,-0.3481,0.7864,0.34,87.31,21.10
4995,5,-0.2356,-0.1887,0.6355,7.60,74.15,24.81
5005,0,0.3665,-0.8921,-0.2707,-82.78,-24.05,4.99
5005,1,-0.4482,-0.3408,0.8542,3.71,81.59,25.13
5005,2,-0.5146,-0.3464,0.7581,1.21,80.96,23.31
5005,3,-0.5037,-0.3162,0.8279,-1.11,83.50,21.19
5005,4,-0.5544,-0.3152,0.7488,-1.60,83.89,19.66
5005,5,-0.2913,-0.1450,0.6133,5.37,71.54,23.86
5016,0,0.3410,-0.8946,-0.3343,-79.62,-24.27,3.61
5016,1,-0.4460,-0.3108,0.8459,2.93,80.23,26.87
5016,2,-0.5344,-0.3108,0.7698,0.53,79.01,25.11
5016,3,-0.4883,-0.2783,0.8083,-1.27,81.77,23.31
5016,4,-0.5491,-0.2773,0.7476,-1.39,81.48,22.14
5016,5,-0.2930,-0.1174,0.6277,6.05,68.95,26.35
5027,0,0.3100,-0.9263,-0.3366,-76.60,-26.41,5.02
5027,1,-0.4609,-0.2957,0.8396,4.70,77.19,28.56
5027,2,-0.5403,-0.3027,0.7566,2.09,76.24,27.10
5027,3,-0.5034,-0.2683,0.7908,0.38,78.98,25.30
5027,4,-0.5676,-0.2722,0.7302,-0.17,79.33,24.06
5027,5,-0.3035,-0.1140,0.6013,7.44,67.05,27.79
5038,0,0.3065,-0.8995,-0.3440,-75.25,-27.30,6.49
5038,1,-0.4768,-0.3020,0.8252,5.31,76.23,29.59
5038,2,-0.5530,-0.3057,0.7375,2.34,75.16,28.03
5038,3,-0.5264,-0.2888,0.8018,0.24,77.83,25.94
5038,4,-0.5823,-0.2881,0.7300,-0.50,77.73,24.70
5038,5,-0.3181,-0.1372,0.5935,6.76,65.19,28.27
5048,0,0.3210,-0.8849,-0.3589,-72.61,-27.91,5.76
5048,1,-0.5010,-0.3140,0.8401,3.92,72.78,29.71
5048,2,-0.5742,-0.3169,0.7393,1.10,71.85,27.94
5048,3,-0.5469,-0.2949,0.8140,-0.89,74.53,26.21
5048,4,-0.6079,-0.2979,0.7395,-1.88,74.66,24.87
5048,5,-0.3423,-0.1421,0.6055,5.51,62.00,28.32
5059,0,0.3307,-0.8995,-0.3794,-70.11,-28.33,4.53
5059,1,-0.5181,-0.3235,0.8450,2.81,70.11,30.03
5059,2,-0.5906,-0.3264,0.7510,-0.23,69.37,28.26
5059,3,-0.5715,-0.3022,0.8130,-1.89,71.82,26.69
5059,4,-0.6218,-0.3091,0.7295,-2.73,72.23,25.02
5059,5,-0.3562,-0.1509,0.5969,4.58,59.92,28.60
5070,0,0.3388,-0.9027,-0.3832,-67.62,-28.68,3.73
5070,1,-0.5220,-0.3389,0.8281,2.31,68.67,29.63
5070,2,-0.5869,-0.3430,0.7375,-0.56,68.09,27.79
5070,3,-0.5769,-0.3242,0.7908,-2.49,70.98,26.06
5070,4,-0.6221,-0.3254,0.7153,-3.18,71.39,24.27
5070,5,-0.3474,-0.1694,0.5833,4.31,59.40,27.47
5081,0,0.3600,-0.8862,-0.3678,-67.36,-27.58,3.27
5081,1,-0.5176,-0.3606,0.8127,1.86,69.40,28.29
5081,2,-0.5732,-0.3589,0.7224,-0.81,68.87,25.98
5081,3,-0.5862,-0.3394,0.7739,-2.44,71.69,24.11
5081,4,-0.6208,-0.3418,0.7034,-3.27,72.43,22.21
5081,5,-0.3379,-0.1853,0.5713,3.80,60.47,25.19
5090,0,0.3725,-0.8718,-0.3568,-68.30,-25.69,2.61
5090,1,-0.5205,-0.3655,0.7974,1.40,69.44,25.69
5090,2,-0.5740,-0.3655,0.7073,-1.28,68.64,23.24
5090,3,-0.5842,-0.3445,0.7649,-3.07,71.19,21.59
5090,4,-0.6201,-0.3425,0.6931,-3.51,71.37,19.47
5090,5,-0.3430,-0.1799,0.5562,3.76,59.15,22.41
5101,0,0.3693,-0.8496,-0.3744,-67.13,-23.17,1.45
5101,1,-0.5283,-0.3511,0.7842,0.46,68.37,23.50
5101,2,-0.5881,-0.3528,0.6836,-1.86,67.66,21.40
5101,3,-0.5876,-0.3315,0.7522,-3.95,70.06,19.57
5101,4,-0.6306,-0.3308,0.6782,-4.32,70.27,17.82
5101,5,-0.3628,-0.1667,0.5469,2.60,58.53,21.19
5112,0,0.3597,-0.8489,-0.4056,-66.36,-22.33,0.26
5112,1,-0.5476,-0.3391,0.7830,0.05,67.59,23.10
5112,2,-0.6125,-0.3374,0.6890,-2.32,67.16,20.99
5112,3,-0.5981,-0.3091,0.7380,-4.02,69.66,19.59
5112,4,-0.6514,-0.3066,0.6680,-4.23,69.95,18.08
5112,5,-0.3948,-0.1423,0.5442,3.08,58.34,21.68
5123,0,0.3386,-0.8745,-0.4391,-66.04,-22.84,1.12
5123,1,-0.5566,-0.3188,0.7712,1.40,67.28,24.37
5123,2,-0.6377,-0.3174,0.6804,-1.02,66.61,22.76
5123,3,-0.6021,-0.2915,0.7173,-2.53,69.24,21.33
5123,4,-0.6548,-0.2937,0.6526,-2.90,69.44,19.95
5123,5,-0.4004,-0.1279,0.5388,4.35,57.50,23.65
5133,0,0.3277,-0.8566,-0.4563,-65.54,-24.45,2.80
5133,1,-0.5967,-0.3269,0.7598,2.14,65.83,24.40
5133,2,-0.6345,-0.3262,0.6670,0.03,65.11,21.91
5133,3,-0.6836,-0.3054,0.6899,-1.76,68.02,19.97
5133,4,-0.7087,-0.3066,0.6128,-1.89,68.60,17.97
5133,5,-0.4375,-0.1379,0.4854,5.11,57.24,21.42
5144,0,0.3322,-0.8247,-0.4767,-65.61,-21.96,3.03
5144,1,-0.5815,-0.3101,0.7263,2.69,69.69,23.50
5144,2,-0.6455,-0.3118,0.6316,0.64,69.91,21.83
5144,3,-0.6138,-0.2856,0.6758,-1.10,73.16,20.58
5144,4,-0.6667,-0.2898,0.6130,-1.16,73.69,19.45
5144,5,-0.4111,-0.1213,0.5095,6.12,61.97,23.08
5155,0,0.3218,-0.8461,-0.4684,-69.74,-23.59,4.59
5155,1,-0.5679,-0.3093,0.7500,4.61,69.71,25.59
5155,2,-0.6440,-0.3088,0.6702,2.38,68.78,24.23
5155,3,-0.6003,-0.2839,0.7048,0.95,70.73,22.73
5155,4,-0.6565,-0.2837,0.6438,0.56,70.70,21.54
5155,5,-0.4011,-0.1245,0.5239,7.71,58.09,25.18
5166,0,0.3207,-0.8496,-0.4696,-65.87,-24.89,6.61
5166,1,-0.5840,-0.3096,0.7561,5.73,65.73,27.30
5166,2,-0.6521,-0.3086,0.6565,2.81,64.56,25.91
5166,3,-0.6121,-0.2922,0.7158,1.18,67.01,24.75
5166,4,-0.6702,-0.2920,0.6418,0.49,67.11,23.39
5166,5,-0.4097,-0.1367,0.5132,7.68,54.35,26.79
5176,0,0.3254,-0.8350,-0.4774,-61.85,-26.58,6.72
5176,1,-0.5864,-0.3123,0.7549,5.50,61.73,28.98
5176,2,-0.6638,-0.3091,0.6589,2.34,60.64,27.30
5176,3,-0.6194,-0.2878,0.7141,1.02,62.69,26.34
5176,4,-0.6748,-0.2908,0.6389,0.18,62.58,25.05
5176,5,-0.4211,-0.1292,0.5166,7.30,49.68,28.38
5187,0,0.3245,-0.8436,-0.4893,-57.68,-28.07,7.00
5187,1,-0.6101,-0.3135,0.7603,5.56,56.26,30.09
5187,2,-0.6819,-0.3108,0.6614,2.32,55.48,28.75
5187,3,-0.6453,-0.2908,0.7214,0.87,57.56,27.62
5187,4,-0.6978,-0.2944,0.6384,-0.14,57.44,26.31
5187,5,-0.4385,-0.1321,0.5154,6.85,44.64,29.02
5198,0,0.3254,-0.8388,-0.5053,-52.29,-28.91,6.84
5198,1,-0.6382,-0.3127,0.7593,4.96,51.66,30.81
5198,2,-0.7029,-0.3069,0.6499,1.69,50.66,28.85
5198,3,-0.6772,-0.2856,0.7092,0.37,53.16,28.12
5198,4,-0.7261,-0.2861,0.6287,-0.69,52.99,26.69
5198,5,-0.4614,-0.1255,0.4929,6.50,40.84,29.34
5208,0,0.3190,-0.8336,-0.5218,-48.79,-29.16,6.44
5208,1,-0.6565,-0.2996,0.7437,4.79,48.53,30.63
5208,2,-0.7190,-0.2998,0.6299,1.39,47.76,28.75
5208,3,-0.7058,-0.2773,0.6863,0.14,50.06,27.83
5208,4,-0.7480,-0.2795,0.6086,-0.99,50.12,26.55
5208,5,-0.4849,-0.1116,0.4807,6.31,38.09,29.01
5219,0,0.3093,-0.8229,-0.5489,-45.88,-28.96,6.30
5219,1,-0.6787,-0.2820,0.7234,4.87,46.40,30.43
5219,2,-0.7385,-0.2859,0.6199,1.73,45.63,28.63
5219,3,-0.7251,-0.2607,0.6714,0.50,47.95,27.82
5219,4,-0.7598,-0.2598,0.5935,-0.38,48.03,26.44
5219,5,-0.4924,-0.0986,0.4783,7.01,35.63,28.93
5230,0,0.2911,-0.8207,-0.5578,-43.49,-28.70,6.91
5230,1,-0.6848,-0.2656,0.7166,5.25,44.24,30.40
5230,2,-0.7385,-0.2654,0.6113,2.21,43.25,28.79
5230,3,-0.7136,-0.2402,0.6604,1.19,45.33,27.88
5230,4,-0.7603,-0.2419,0.5796,0.20,45.36,26.82
5230,5,-0.4946,-0.0713,0.4702,7.95,32.63,29.37
5241,0,0.2736,-0.8144,-0.5649,-40.34,-28.82,8.02
5241,1,-0.6860,-0.2542,0.7056,6.09,38.75,30.58
5241,2,-0.7327,-0.2551,0.6008,2.78,37.82,28.78
5241,3,-0.7122,-0.2344,0.6519,1.71,39.79,28.17
5241,4,-0.7537,-0.2329,0.5686,0.52,39.50,27.02
5241,5,-0.4846,-0.0679,0.4583,7.94,26.46,28.75
5251,0,0.2611,-0.7954,-0.5518,-33.37,-28.28,8.21
5251,1,-0.6885,-0.2468,0.7007,6.35,31.65,29.16
5251,2,-0.7275,-0.2400,0.5940,2.96,30.63,27.24
5251,3,-0.7263,-0.2197,0.6448,2.23,32.52,26.70
5251,4,-0.7520,-0.2175,0.5686,1.50,32.15,25.24
5251,5,-0.4795,-0.0457,0.4568,8.52,19.71,26.72
5261,0,0.2417,-0.7989,-0.5388,-27.26,-25.83,8.49
5261,1,-0.6931,-0.2251,0.7070,7.22,25.16,26.60
5261,2,-0.7368,-0.2212,0.6064,4.15,23.59,24.60
5261,3,-0.7312,-0.2004,0.6492,3.39,25.27,24.37
5261,4,-0.7539,-0.2061,0.5759,2.49,24.89,23.10
5261,5,-0.4832,-0.0391,0.4614,9.76,12.11,24.38
5272,0,0.2346,-0.8023,-0.5474,-19.23,-23.78,9.19
5272,1,-0.6902,-0.2229,0.7043,8.02,18.09,24.67
5272,2,-0.7454,-0.2236,0.6013,4.98,17.19,22.82
5272,3,-0.7285,-0.2080,0.6519,4.11,18.93,22.93
5272,4,-0.7637,-0.2083,0.5740,2.99,18.61,21.89
5272,5,-0.4939,-0.0457,0.4600,10.46,6.29,23.07
5283,0,0.2408,-0.8030,-0.5653,-14.07,-22.42,9.50
5283,1,-0.7014,-0.2319,0.7104,8.56,12.85,23.60
5283,2,-0.7500,-0.2339,0.6121,5.59,12.09,21.86
5283,3,-0.7354,-0.2141,0.6543,4.89,13.80,22.20
5283,4,-0.7773,-0.2190,0.5784,4.32,13.77,21.48
5283,5,-0.5176,-0.0525,0.4697,11.39,1.76,22.29
5293,0,0.2495,-0.8309,-0.5823,-9.26,-21.82,10.94
5293,1,-0.7166,-0.2310,0.7258,9.91,9.07,23.11
5293,2,-0.7739,-0.2358,0.6257,7.11,8.63,21.50
5293,3,-0.7681,-0.2117,0.6575,6.52,10.11,21.77
5293,4,-0.8027,-0.2048,0.5828,6.26,10.12,20.85
5293,5,-0.5374,-0.0476,0.4749,13.48,-1.95,21.73
5304,0,0.2457,-0.8506,-0.5915,-5.55,-20.75,12.72
5304,1,-0.7322,-0.2380,0.7290,12.37,6.84,22.37
5304,2,-0.7827,-0.2366,0.6326,9.47,6.78,21.28
5304,3,-0.7810,-0.2153,0.6599,9.04,9.27,21.62
5304,4,-0.8242,-0.2161,0.5894,8.58,9.82,21.30
5304,5,-0.5591,-0.0476,0.4883,15.62,-1.51,21.89
5315,0,0.2506,-0.8641,-0.6011,-6.02,-20.23,15.30
5315,1,-0.7358,-0.2390,0.7400,14.73,7.05,21.53
5315,2,-0.7876,-0.2344,0.6448,12.26,6.75,20.43
5315,3,-0.7893,-0.2119,0.6689,11.82,9.07,20.70
5315,4,-0.8254,-0.2102,0.6016,11.44,9.50,20.41
5315,5,-0.5544,-0.0530,0.4973,18.56,-2.40,20.61
5326,0,0.2455,-0.8767,-0.5871,-5.28,-18.08,17.66
5326,1,-0.7383,-0.2351,0.7390,17.76,6.66,19.50
5326,2,-0.7830,-0.2341,0.6475,15.28,6.50,18.56
5326,3,-0.8025,-0.2090,0.6667,14.85,8.75,18.60
5326,4,-0.8293,-0.2061,0.5977,14.64,9.24,18.06
5326,5,-0.5486,-0.0469,0.4968,21.63,-2.37,18.26
5336,0,0.2428,-0.8647,-0.5799,-5.23,-14.70,19.90
5336,1,-0.7493,-0.2332,0.7400,19.91,6.52,16.47
5336,2,-0.7830,-0.2310,0.6418,17.66,6.38,15.24
5336,3,-0.8196,-0.2068,0.6604,17.37,8.70,15.13
5336,4,-0.8345,-0.2083,0.5859,17.27,9.16,14.73
5336,5,-0.5500,-0.0415,0.4856,24.11,-2.03,14.78
5347,0,0.2384,-0.8566,-0.5750,-5.70,-11.08,21.39
5347,1,-0.7539,-0.2305,0.7244,22.72,7.59,11.66
5347,2,-0.7871,-0.2266,0.6287,20.89,7.53,11.19
5347,3,-0.8350,-0.2004,0.6382,20.29,9.86,10.69
5347,4,-0.8501,-0.1960,0.5676,20.84,10.49,10.66
5347,5,-0.5671,-0.0354,0.4648,27.56,-0.29,10.43
5358,0,0.2325,-0.8477,-0.5910,-7.37,-5.86,23.99
5358,1,-0.7664,-0.2170,0.7090,25.50,10.55,7.73
5358,2,-0.7988,-0.2178,0.6067,24.52,10.75,7.36
5358,3,-0.8403,-0.1899,0.6199,23.68,13.02,7.01
5358,4,-0.8613,-0.1880,0.5496,24.46,13.57,7.01
5358,5,-0.5803,-0.0259,0.4556,31.10,2.79,6.85
5369,0,0.2240,-0.8322,-0.6059,-10.74,-2.22,26.55
5369,1,-0.7783,-0.2185,0.7063,28.38,12.56,3.54
5369,2,-0.8088,-0.2180,0.6121,27.60,11.71,3.79
5369,3,-0.8298,-0.1926,0.6350,26.81,13.80,3.04
5369,4,-0.8518,-0.1912,0.5581,27.63,14.21,3.28
5369,5,-0.5625,-0.0361,0.4456,33.95,3.77,3.36
5379,0,0.2331,-0.8179,-0.5954,-11.65,2.29,27.95
5379,1,-0.7451,-0.2278,0.7175,29.80,12.29,-0.52
5379,2,-0.7712,-0.2292,0.6067,29.40,11.31,-0.21
5379,3,-0.7927,-0.2065,0.6536,28.20,13.22,-0.89
5379,4,-0.8044,-0.2124,0.5708,29.18,13.02,-0.64
5379,5,-0.5085,-0.0515,0.4609,35.34,1.94,-0.76
5390,0,0.2456,-0.7998,-0.5455,-9.64,6.00,28.00
5390,1,-0.7014,-0.2373,0.7109,30.31,10.50,-5.10
5390,2,-0.7229,-0.2375,0.6038,29.98,9.83,-4.63
5390,3,-0.7493,-0.2185,0.6548,28.85,11.28,-5.53
5390,4,-0.7703,-0.2209,0.5762,29.91,11.18,-5.05
5390,5,-0.4753,-0.0647,0.4568,35.88,0.09,-5.36
5401,0,0.2503,-0.7937,-0.5165,-7.49,10.57,27.63
5401,1,-0.6772,-0.2363,0.7139,30.52,8.02,-9.28
5401,2,-0.7061,-0.2402,0.6086,30.96,7.24,-9.02
5401,3,-0.7324,-0.2158,0.6558,29.60,8.27,-9.56
5401,4,-0.7456,-0.2163,0.5879,31.18,7.30,-9.13
5401,5,-0.4519,-0.0520,0.4707,36.90,-3.95,-9.51
5411,0,0.2433,-0.8025,-0.5080,-3.74,15.09,27.74
5411,1,-0.6707,-0.2288,0.7114,31.28,2.58,-13.37
5411,2,-0.7048,-0.2207,0.6077,31.71,1.42,-12.85
5411,3,-0.7131,-0.2039,0.6614,30.38,2.27,-13.10
5411,4,-0.7415,-0.2053,0.5852,32.06,1.45,-12.34
5411,5,-0.4575,-0.0352,0.4678,37.27,-9.50,-12.76
5421,0,0.2325,-0.7948,-0.5201,2.87,17.76,27.51
5421,1,-0.6770,-0.2087,0.7134,31.37,-4.34,-16.29
5421,2,-0.7190,-0.2041,0.6013,31.89,-5.69,-15.27
5421,3,-0.6978,-0.1819,0.6553,30.78,-5.18,-15.24
5421,4,-0.7341,-0.1804,0.5759,32.46,-5.97,-14.17
5421,5,-0.4619,-0.0188,0.4622,37.77,-17.02,-14.99
5432,0,0.2130,-0.7965,-0.5396,11.25,19.76,28.05
5432,1,-0.6750,-0.1951,0.7087,32.40,-12.90,-17.15
5432,2,-0.7351,-0.1963,0.6199,33.24,-14.78,-16.02
5432,3,-0.6777,-0.1687,0.6511,32.31,-14.96,-15.37
5432,4,-0.7283,-0.1709,0.5911,33.94,-16.49,-13.97
5432,5,-0.4670,-0.0107,0.4758,39.63,-28.34,-14.89
5443,0,0.2098,-0.8174,-0.5522,21.21,19.79,30.33
5443,1,-0.6748,-0.1912,0.7002,34.50,-23.91,-17.31
5443,2,-0.7273,-0.1958,0.6106,35.31,-25.22,-16.03
5443,3,-0.7046,-0.1650,0.6396,34.40,-24.69,-15.47
5443,4,-0.7410,-0.1685,0.5691,36.24,-25.79,-14.06
5443,5,-0.4729,-0.0020,0.4661,41.76,-36.95,-15.51
5454,0,0.2022,-0.8083,-0.5519,30.38,20.88,31.92
5454,1,-0.6682,-0.1858,0.7009,36.35,-31.37,-18.09
5454,2,-0.7214,-0.1824,0.6096,37.27,-32.47,-16.73
5454,3,-0.6978,-0.1538,0.6367,36.75,-32.06,-15.91
5454,4,-0.7317,-0.1531,0.5725,38.56,-32.79,-14.46
5454,5,-0.4663,0.0134,0.4746,44.14,-43.62,-16.15
5464,0,0.1881,-0.8305,-0.5281,36.24,22.52,34.84
5464,1,-0.6707,-0.1746,0.7104,39.66,-37.24,-19.69
5464,2,-0.7312,-0.1702,0.6343,40.82,-38.11,-18.02
5464,3,-0.7136,-0.1436,0.6453,40.38,-37.45,-16.85
5464,4,-0.7498,-0.1445,0.5845,42.67,-37.86,-15.05
5464,5,-0.4917,0.0181,0.5005,48.21,-48.50,-16.78
5476,0,0.1824,-0.8651,-0.5523,41.37,23.78,39.17
5476,1,-0.6833,-0.1653,0.7295,44.02,-41.24,-20.17
5476,2,-0.7539,-0.1692,0.6541,45.16,-41.56,-17.88
5476,3,-0.7185,-0.1260,0.6489,45.01,-40.41,-16.47
5476,4,-0.7681,-0.1262,0.6018,47.36,-40.50,-13.92
5476,5,-0.5227,0.0303,0.5151,52.79,-50.78,-15.68
5487,0,0.1748,-0.8918,-0.5779,43.51,23.91,43.66
5487,1,-0.6870,-0.1621,0.7346,49.39,-41.69,-18.93
5487,2,-0.7585,-0.1621,0.6704,50.52,-41.62,-15.88
5487,3,-0.7283,-0.1199,0.6448,50.78,-40.03,-14.72
5487,4,-0.7832,-0.1167,0.5986,52.82,-39.74,-11.77
